Time (s),Linear Acceleration x (m/s^2)
1.814887000E-2,0.000000000E0
2.298793300E-2,-3.601744771E-3
2.782689100E-2,3.982238472E-3
3.266584900E-2,1.732484251E-2
3.750480800E-2,-1.104591042E-2
4.234376600E-2,-1.122020930E-2
4.718277600E-2,-1.460149884E-3
5.202173500E-2,7.941871881E-4
5.686069300E-2,2.836719155E-3
6.169965100E-2,-1.251832396E-2
6.653861000E-2,-1.357834041E-2
7.137756800E-2,9.517744184E-3
7.621652600E-2,-4.568696022E-5
8.105548500E-2,6.626576185E-3
8.589449500E-2,1.749090850E-3
9.073345300E-2,-9.545549750E-3
9.557241200E-2,5.561858416E-5
1.004113700E-1,9.095892310E-3
1.052503280E-1,1.318254322E-2
1.100892870E-1,5.707718432E-3
1.149282450E-1,2.592174709E-2
1.197672030E-1,-2.689085901E-3
1.246061620E-1,8.875146508E-3
1.294451200E-1,-2.956382930E-3
1.342841310E-1,1.094865054E-2
1.391230890E-1,1.976254582E-2
1.439620470E-1,1.212188601E-2
1.488010060E-1,2.491429448E-3
1.536399640E-1,-4.493921995E-3
1.584789220E-1,3.140047193E-4
1.633178810E-1,-6.639122963E-3
1.681568390E-1,-1.763254404E-3
1.729957970E-1,5.255028605E-3
1.778347560E-1,-4.185147583E-3
1.826737660E-1,-1.765653491E-3
1.875127240E-1,-4.039742053E-3
1.923516830E-1,-1.598477364E-3
1.971906410E-1,-1.552477479E-3
2.020295990E-1,1.014860719E-2
2.068685580E-1,-4.156090319E-3
2.117075160E-1,-4.078894854E-3
2.165464740E-1,1.473709941E-2
2.213854330E-1,-6.664872169E-3
2.262243910E-1,1.921314746E-2
2.310633490E-1,-6.945759058E-3
2.359023600E-1,1.193562150E-2
2.407413180E-1,2.317987382E-3
2.455802760E-1,-7.126688957E-3
2.504192350E-1,2.645701170E-5
2.551644430E-1,4.719965160E-3
2.599085580E-1,-2.406395972E-3
2.646526720E-1,9.349629283E-3
2.693967870E-1,-1.195172966E-2
2.741409010E-1,-2.332456410E-3
2.788850680E-1,2.384744585E-3
2.836291830E-1,-7.082298398E-3
2.883732970E-1,6.992369890E-5
2.931174120E-1,1.650558412E-2
2.978615260E-1,-7.293395698E-3
3.026056410E-1,-7.167704403E-3
3.073497560E-1,7.047474384E-3
3.120938700E-1,-7.187888026E-3
3.168379850E-1,-2.359978855E-3
3.215820990E-1,-4.618778825E-3
3.263262140E-1,-4.515536129E-3
3.310703810E-1,2.699345350E-4
3.358144950E-1,-1.387283951E-2
3.405586100E-1,2.838529646E-3
3.453027240E-1,-1.137541234E-2
3.500468390E-1,-1.774206758E-3
3.547909530E-1,2.972476184E-3
3.595350680E-1,-8.891172707E-3
3.642791830E-1,-1.351341605E-2
3.690232970E-1,2.441302687E-2
3.737674120E-1,-4.239574075E-3
3.785115780E-1,2.904146910E-3
3.832556930E-1,9.927466512E-3
3.879998080E-1,-4.368759692E-3
3.927439220E-1,1.225631684E-2
3.974880370E-1,-9.131282568E-3
4.022321510E-1,-6.651341915E-3
4.069762660E-1,-4.174530506E-3
4.117203810E-1,-1.357628405E-2
4.164644950E-1,3.111474216E-3
4.212086100E-1,-4.071772099E-3
4.259527240E-1,1.962948591E-2
4.306968390E-1,9.918108582E-3
4.354410060E-1,2.655871212E-3
4.401851200E-1,2.158561349E-2
4.449292350E-1,1.185680926E-2
4.496733490E-1,-2.497136593E-3
4.544174640E-1,7.029354572E-3
4.591615780E-1,9.296379983E-3
4.639056930E-1,4.523038864E-3
4.686498080E-1,-2.623781562E-3
4.733939220E-1,-1.203545928E-2
4.781380370E-1,9.377971292E-3
4.828822030E-1,-2.555355430E-3
4.876263180E-1,-1.564919949E-4
4.923704330E-1,-4.860363901E-3
4.971145470E-1,-7.028132677E-5
5.018586620E-1,1.649143547E-2
5.066027760E-1,1.396519691E-2
5.113468910E-1,1.985318959E-3
5.160910060E-1,-3.719404340E-4
5.208351200E-1,-3.924891353E-4
5.255792350E-1,1.620832831E-2
5.303233490E-1,1.838184893E-3
5.350675160E-1,6.595209241E-3
5.398116310E-1,8.910492063E-3
5.445557450E-1,2.306174487E-2
5.492998600E-1,-2.219817042E-2
5.540439740E-1,-3.024384379E-3
5.587880890E-1,1.749977469E-3
5.635322030E-1,-1.014940441E-2
5.682763180E-1,-1.008599252E-2
5.730204330E-1,1.372785866E-2
5.777645470E-1,8.870139718E-3
5.825086620E-1,8.771054447E-3
5.872528280E-1,-3.134503961E-3
5.919969430E-1,8.759729564E-3
5.967410580E-1,-7.947757840E-3
6.014851720E-1,6.331443787E-3
6.062292870E-1,-5.581557751E-3
6.109734010E-1,-7.855668664E-4
6.157175160E-1,-5.520850420E-3
6.204616310E-1,-7.843554020E-3
6.252057450E-1,8.835688233E-3
6.299498600E-1,1.351153105E-2
6.346939740E-1,-7.981315255E-3
6.394380890E-1,-1.502928883E-2
6.441822560E-1,-3.007218242E-3
6.489263700E-1,-5.770847201E-4
6.536704850E-1,-1.006010175E-2
6.584145990E-1,1.138338447E-2
6.631587140E-1,-5.719438195E-4
6.679028280E-1,-5.630105734E-4
6.726469430E-1,8.937373757E-3
6.773910580E-1,6.465464830E-3
6.821351720E-1,1.669771969E-3
6.868792870E-1,-7.130876184E-4
6.916234010E-1,1.669444144E-3
6.963675160E-1,8.750088513E-3
7.011116830E-1,1.618966460E-3
7.058557970E-1,3.982283175E-3
7.105999120E-1,6.297662854E-3
7.153440260E-1,1.475341618E-3
7.200881410E-1,-9.621679783E-4
7.248322560E-1,-5.695983768E-3
7.295763700E-1,1.502543688E-3
7.343204850E-1,2.044875920E-2
7.390645990E-1,-3.418520093E-3
7.438087140E-1,-1.762363315E-2
7.485528280E-1,-1.035395265E-2
7.532969950E-1,-7.918864489E-3
7.580411100E-1,4.015699029E-3
7.627852240E-1,-3.160491586E-3
7.675293390E-1,-5.502864718E-3
7.722734530E-1,1.112930477E-2
7.770175680E-1,1.577451825E-3
7.817616830E-1,6.342247128E-3
7.865057970E-1,6.265081465E-3
7.912499120E-1,-3.274716437E-3
7.959940260E-1,-1.039039344E-2
8.007381410E-1,1.564316452E-3
8.054822560E-1,-3.134049475E-3
8.102263700E-1,-3.104232252E-3
8.149705370E-1,-7.876932621E-3
8.197146510E-1,-5.463190377E-3
8.244587660E-1,8.794844151E-3
8.292028810E-1,1.550108194E-3
8.339469950E-1,-5.549743772E-3
8.386911100E-1,-1.259043068E-2
8.434352240E-1,1.599278301E-2
8.481793390E-1,1.111768186E-2
8.529234530E-1,8.656546474E-3
8.576675680E-1,-9.027197957E-4
8.624116830E-1,-1.752970368E-2
8.671557970E-1,4.032976925E-3
8.718999120E-1,-5.459971726E-3
8.766440780E-1,1.117138565E-2
8.813881930E-1,-8.104294538E-4
8.861323080E-1,-1.029174030E-2
8.908764220E-1,-7.105022669E-4
8.956205370E-1,1.672469079E-3
9.003646510E-1,-6.826296449E-4
9.051087660E-1,-7.735617459E-3
9.098528810E-1,-1.238497347E-2
9.145969950E-1,-2.174134552E-2
9.193411100E-1,6.890334189E-3
9.240852240E-1,-2.598181367E-3
9.288293390E-1,1.881136000E-2
9.335734530E-1,2.019874752E-3
9.383175680E-1,6.752490997E-3
9.430617350E-1,-9.881772101E-3
9.478058490E-1,-1.219662279E-2
9.525499640E-1,-7.345274091E-3
9.572940780E-1,2.183377743E-3
9.620381930E-1,-2.519927919E-3
9.667823080E-1,4.595398903E-3
9.715264220E-1,6.961934268E-3
9.762705370E-1,-7.357917726E-3
9.810146510E-1,2.112542093E-2
9.857587660E-1,-7.493026555E-3
9.905028810E-1,-5.053542554E-3
9.952469950E-1,6.828658283E-3
9.999911620E-1,9.176589549E-3
1.004735276E0,2.013422549E-3
1.009479391E0,1.386497915E-2
1.014223506E0,-1.237658411E-2
1.018967620E0,6.742022932E-3
1.023711735E0,-7.547512650E-3
1.028455849E0,-5.108043551E-3
1.033199964E0,-7.462911308E-3
1.037944078E0,2.122759819E-3
1.042688193E0,9.228102863E-3
1.047432308E0,-5.053907633E-3
1.052176422E0,-2.620890737E-4
1.056920537E0,-2.401304990E-2
1.061664651E0,7.095411420E-3
1.066408766E0,2.266444266E-3
1.071152933E0,1.171452552E-2
1.075897047E0,2.129308879E-3
1.080641162E0,-2.573877573E-4
1.085385276E0,-1.214397699E-2
1.090129391E0,9.289078414E-3
1.094873506E0,2.096958458E-3
1.099617620E0,1.629222184E-2
1.104361735E0,-7.568441331E-3
1.109105849E0,-5.157038569E-3
1.113849964E0,1.621756703E-2
1.118594078E0,1.134058088E-2
1.123338193E0,-6.143972278E-4
1.128082308E0,-6.051212549E-4
1.132826474E0,-5.676671863E-4
1.137570589E0,-1.482455432E-2
1.142314703E0,1.377726346E-2
1.147058818E0,-5.709007382E-4
1.151802933E0,-7.681101561E-3
1.156547047E0,4.251003265E-3
1.161291162E0,1.373905689E-2
1.166035276E0,-3.010399640E-3
1.170779391E0,-6.367415190E-4
1.175523506E0,-1.014752686E-2
1.180267620E0,-1.483351737E-2
1.185011735E0,4.248596728E-3
1.189755849E0,-1.948344707E-2
1.194500016E0,-3.343224525E-4
1.199244078E0,-2.995878458E-4
1.203988245E0,2.107970417E-3
1.208732360E0,-2.623178065E-3
1.213476474E0,-1.208891720E-2
1.218220589E0,-9.639613330E-3
1.222964703E0,-4.809580743E-3
1.227708818E0,2.353079617E-3
1.232452933E0,1.420133561E-2
1.237197047E0,-4.896134138E-3
1.241941162E0,-7.224284112E-3
1.246685276E0,2.331607044E-3
1.251429391E0,-7.147170603E-3
1.256173506E0,1.189937443E-2
1.260917620E0,7.058605552E-3
1.265661735E0,-4.860922694E-3
1.270405849E0,-2.415351570E-3
1.275149964E0,-7.137052715E-3
1.279894131E0,-1.659296453E-2
1.284638245E0,4.905410111E-3
1.289382360E0,9.585984051E-3
1.294126474E0,-9.506940842E-6
1.298870589E0,1.185891032E-2
1.303614703E0,2.243772149E-3
1.308358818E0,-1.445859671E-4
1.313102933E0,7.007434964E-3
1.317847047E0,-4.911668599E-3
1.322591162E0,-1.497566700E-4
1.327335276E0,4.629433155E-3
1.332079391E0,6.967663765E-3
1.336823506E0,-2.634488046E-3
1.341567620E0,2.137169242E-3
1.346311735E0,-2.780705690E-4
1.351055849E0,-7.418952882E-3
1.355800016E0,-9.754329920E-3
1.360544131E0,-2.550698817E-3
1.365288245E0,-4.898391664E-3
1.370032360E0,2.236761153E-3
1.374776474E0,-1.207197458E-2
1.379520589E0,9.416513145E-3
1.384264703E0,-9.328871965E-5
1.389008818E0,4.656940699E-3
1.393752933E0,4.622295499E-3
1.398497047E0,-1.676823199E-2
1.403241162E0,1.182177663E-2
1.407985276E0,4.608303308E-3
1.412729391E0,-1.719221473E-4
1.417473506E0,-2.624422312E-3
1.422217620E0,4.463531077E-3
1.426961735E0,-2.688378096E-3
1.431705901E0,-3.176406026E-4
1.436450016E0,-5.056828260E-3
1.441194131E0,-7.355630398E-3
1.445938245E0,-9.607024491E-3
1.450682360E0,-7.121890783E-3
1.455426474E0,1.192466915E-2
1.460170589E0,1.177296788E-2
1.464914703E0,-1.207827777E-2
1.469658818E0,9.353764355E-3
1.474402933E0,1.402574033E-2
1.479147047E0,-9.788021445E-3
1.483891162E0,-1.913756132E-2
1.488635276E0,-2.364203334E-3
1.493379391E0,1.667097211E-2
1.498123506E0,-4.791714251E-3
1.502867620E0,-9.493619204E-3
1.507611735E0,-4.664577544E-3
1.512355901E0,-4.650019109E-3
1.517100016E0,2.146612108E-2
1.521844131E0,-7.211901248E-3
1.526588245E0,-2.138493955E-2
1.531332360E0,1.441867650E-2
1.536076474E0,1.192933321E-2
1.540820589E0,-7.150135934E-3
1.545564703E0,3.784894943E-6
1.550308818E0,-2.365201712E-3
1.555052933E0,1.424013078E-2
1.559797047E0,1.172426343E-2
1.564541162E0,6.884723902E-3
1.569285276E0,-2.636081725E-2
1.574029391E0,-4.753261805E-3
1.578773506E0,-4.709720612E-3
1.583517620E0,-7.068134844E-3
1.588261735E0,2.384192497E-2
1.593005849E0,7.036991417E-3
1.597750016E0,1.410138607E-2
1.602494131E0,4.496276379E-3
1.607238245E0,6.807371974E-3
1.611982360E0,-1.934690028E-2
1.616726474E0,-3.104592115E-2
1.621470589E0,-2.365648746E-3
1.626214703E0,2.432011068E-3
1.630958818E0,-2.330094576E-3
1.635702933E0,9.528949857E-3
1.640447047E0,1.188284904E-2
1.645191162E0,-4.770606756E-5
1.649935276E0,2.357751131E-3
1.654679391E0,2.370044589E-3
1.659423506E0,9.819865227E-6
1.664167620E0,-1.434981823E-5
1.668911735E0,2.362810075E-3
1.673655849E0,-7.201202214E-3
1.678399964E0,-2.391271293E-3
1.683144078E0,7.152587175E-3
1.687888193E0,1.184245199E-2
1.692632360E0,-1.438248158E-2
1.697376474E0,7.068298757E-3
1.702120589E0,-1.434283704E-2
1.706864703E0,2.362549305E-3
1.711608818E0,2.346791327E-3
1.716352933E0,1.891262829E-2
1.721097047E0,-4.969872534E-3
1.725841162E0,4.566997290E-3
1.730585276E0,-7.360018790E-3
1.735329391E0,1.165981591E-2
1.740073506E0,1.391097903E-2
1.744817620E0,1.619966328E-2
1.749561735E0,8.949711919E-3
1.754305849E0,-1.482174546E-2
1.759049964E0,-7.575653493E-3
1.763794078E0,1.387582719E-2
1.768538193E0,6.673492491E-3
1.773282308E0,1.142407954E-2
1.778026474E0,-5.249112844E-3
1.782770537E0,1.945227385E-3
1.787514651E0,1.904927194E-3
1.792258818E0,2.796597779E-2
1.797002933E0,4.007562995E-3
1.801747047E0,1.344138384E-2
1.806491162E0,1.093217731E-2
1.811235276E0,-1.051117480E-2
1.815979391E0,1.472555101E-3
1.820723506E0,3.836847842E-3
1.825467620E0,3.836594522E-3
1.830211735E0,8.554324508E-3
1.834955849E0,-5.693592131E-3
1.839699964E0,1.096772403E-2
1.844444078E0,1.085200906E-2
1.849188193E0,5.963243544E-3
1.853932308E0,8.262120187E-3
1.858676422E0,-1.313096285E-2
1.863420537E0,-1.181900501E-3
1.868164651E0,1.549807936E-2
1.872908766E0,3.479957581E-3
1.877652881E0,8.200660348E-3
1.882397047E0,-1.355506480E-3
1.887141162E0,-8.430913091E-3
1.891885276E0,8.253209293E-3
1.896629391E0,-8.422046900E-3
1.901373506E0,1.066336781E-2
1.906117620E0,3.431767225E-3
1.910861735E0,1.524350047E-2
1.915605849E0,-2.284595370E-2
1.920349964E0,-6.041459739E-3
1.925094078E0,-1.782312244E-2
1.929838193E0,-1.052375883E-2
1.934582308E0,-1.043213159E-2
1.939326422E0,1.522913575E-3
1.944070537E0,1.514382660E-3
1.948814651E0,1.096896827E-2
1.953558766E0,-1.996598393E-2
1.958302881E0,-5.586616695E-3
1.963046995E0,1.582279801E-3
1.967791110E0,8.663423359E-3
1.972535224E0,-3.325745463E-3
1.977279339E0,-8.011378348E-3
1.982023453E0,1.607812941E-3
1.986767568E0,-1.020957530E-2
1.991511735E0,-1.252146065E-2
1.996255797E0,-5.767792463E-4
2.000999964E0,6.522111595E-3
2.005744078E0,-5.364470184E-3
2.010488193E0,-1.003336161E-2
2.015232308E0,-1.231870055E-2
2.019976422E0,-1.223989576E-2
2.024720537E0,2.075091004E-3
2.029464651E0,-5.028672516E-3
2.034208766E0,-1.210172474E-2
2.038952881E0,-7.223166525E-3
2.043696995E0,-1.214444637E-5
2.048441110E0,-2.381004393E-3
2.053185224E0,1.187982410E-2
2.057929339E0,-7.198773324E-3
2.062673453E0,2.384684980E-3
2.067417568E0,7.114022970E-3
2.072161683E0,1.180396974E-2
2.076905797E0,-1.551061869E-4
2.081649912E0,1.408716291E-2
2.086394026E0,1.871969551E-2
2.091138141E0,2.091226727E-2
2.095882256E0,-1.245018095E-2
2.100626370E0,-2.850741148E-3
2.105370485E0,2.096249163E-2
2.110114599E0,1.604550332E-2
2.114858714E0,1.649953425E-3
2.119602881E0,-7.609948516E-4
2.124346995E0,-1.498825848E-2
2.129091110E0,-5.339883268E-3
2.133835224E0,-1.475473493E-2
2.138579339E0,4.355207086E-3
2.143323453E0,1.381460577E-2
2.148067568E0,6.556525826E-3
2.152811683E0,1.839870960E-2
2.157555797E0,-7.880628109E-3
2.162299912E0,-1.252854615E-2
2.167044026E0,-2.191197872E-2
2.171788141E0,-1.700792462E-2
2.176532256E0,1.161209494E-2
2.181276370E0,-7.407769561E-3
2.186020485E0,1.161270589E-2
2.190764599E0,6.773859262E-3
2.195508714E0,1.381128281E-2
2.200252828E0,-7.656052709E-3
2.204996943E0,-1.233455539E-2
2.209741058E0,4.354327917E-3
2.214485172E0,-1.466085017E-2
2.219229287E0,1.877034456E-2
2.223973401E0,4.380553961E-3
2.228717516E0,1.975104213E-3
2.233461631E0,1.962803304E-3
2.238205797E0,-7.540687919E-3
2.242949912E0,-1.221968979E-2
2.247693974E0,-1.920433342E-2
2.252438141E0,-7.147476077E-3
2.257182256E0,6.267428398E-5
2.261926370E0,1.673297584E-2
2.266670485E0,4.676789045E-3
2.271414599E0,-4.906035960E-3
2.276158714E0,-9.606987238E-3
2.280902828E0,9.431585670E-3
2.285646943E0,-2.507962286E-3
2.290391058E0,1.884433627E-2
2.295135172E0,3.292852640E-2
2.299879287E0,-5.338191986E-4
2.304623401E0,-7.615841925E-3
2.309367516E0,-2.858936787E-3
2.314111631E0,-5.203835666E-3
2.318855745E0,-2.755410969E-3
2.323599860E0,-1.224852353E-2
2.328343974E0,-2.707950771E-3
2.333088089E0,-2.681687474E-3
2.337832203E0,6.835639477E-3
2.342576318E0,-9.827569127E-3
2.347320433E0,2.122677863E-3
2.352064547E0,-7.410623133E-3
2.356808662E0,6.864577532E-3
2.361552776E0,-7.425978780E-3
2.366296891E0,-4.902325571E-3
2.371041006E0,-2.484664321E-3
2.375785120E0,1.417861879E-2
2.380529235E0,1.169127971E-2
2.385273349E0,-7.385268807E-3
2.390017516E0,-2.574034035E-3
2.394761631E0,-1.915860176E-2
2.399505745E0,-4.729472101E-3
2.404249860E0,2.460993826E-3
2.408993974E0,1.436531544E-2
2.413738089E0,6.897002459E-5
2.418482203E0,-2.329275012E-3
2.423226318E0,9.496510029E-5
2.427970433E0,9.787082672E-5
2.432714547E0,1.196538657E-2
2.437458662E0,4.722483456E-3
2.442202776E0,-2.431355417E-3
2.446946891E0,-7.153399289E-3
2.451691006E0,1.661095768E-2
2.456435120E0,-1.337081194E-4
2.461179235E0,-4.846185446E-3
2.465923349E0,-1.189204305E-2
2.470667464E0,-4.698604345E-3
2.475411578E0,8.977949619E-5
2.480155693E0,6.425380707E-5
2.484899808E0,7.157810032E-3
2.489643922E0,-1.677870750E-5
2.494388037E0,-4.758946598E-3
2.499132151E0,-2.370722592E-3
2.503876266E0,-4.720151424E-3
2.508620381E0,-7.049538195E-3
2.513364495E0,-6.986394525E-3
2.518108610E0,-6.924018264E-3
2.522852724E0,-6.861925125E-3
2.527596839E0,2.719432116E-3
2.532340953E0,5.045562983E-3
2.537085068E0,1.215410978E-2
2.541829183E0,-1.401694119E-2
2.546573297E0,7.431492209E-3
2.551317412E0,-6.863787770E-3
2.556061578E0,7.406145334E-3
2.560805693E0,1.683989912E-2
2.565549756E0,1.675975323E-2
2.570293922E0,-9.506165981E-3
2.575038037E0,9.676814079E-5
2.579782151E0,-7.019229233E-3
2.584526266E0,-6.985276937E-3
2.589270381E0,2.237632871E-4
2.594014495E0,-1.635658741E-2
2.598758610E0,7.540948689E-3
2.603502724E0,-1.147277653E-2
2.608246839E0,4.911720753E-4
2.612990953E0,-6.627410650E-3
2.617735068E0,-1.822493970E-3
2.622479183E0,-4.176497459E-3
2.627223297E0,-1.600195467E-2
2.631967412E0,-8.746035397E-3
2.636711526E0,1.271519810E-2
2.641455641E0,7.839143276E-3
2.646199756E0,1.729775965E-2
2.650943870E0,7.694482803E-3
2.655687985E0,2.888068557E-3
2.660432099E0,7.669940591E-3
2.665176214E0,7.609717548E-3
2.669920328E0,-6.715297699E-3
2.674664443E0,-1.881636679E-3
2.679408558E0,-1.890502870E-3
2.684152672E0,1.236646622E-2
2.688896787E0,-1.143300533E-2
2.693640901E0,-1.602284610E-2
2.698385016E0,7.532685995E-4
2.703129131E0,3.095321357E-3
2.707873245E0,7.818967104E-3
2.712617360E0,-1.597180218E-2
2.717361474E0,1.975846291E-2
2.722105589E0,-4.159338772E-3
2.726849703E0,5.970075727E-4
2.731593818E0,-8.895583451E-3
2.736337933E0,2.990394831E-3
2.741082047E0,-1.776367426E-3
2.745826162E0,1.013502479E-2
2.750570276E0,5.280710757E-3
2.755314391E0,4.946440458E-4
2.760058506E0,-8.997559547E-3
2.764802620E0,5.441680551E-4
2.769546787E0,1.003461331E-2
2.774290901E0,7.610283792E-3
2.779035016E0,7.550790906E-3
2.783779131E0,2.717562020E-3
2.788523245E0,1.690765470E-2
2.793267360E0,-2.212382853E-3
2.798011474E0,2.625631541E-2
2.802755589E0,2.312622964E-3
2.807499703E0,-4.711747169E-5
2.812243818E0,-4.279613495E-5
2.816987933E0,9.452767670E-3
2.821732047E0,-7.232248783E-3
2.826476162E0,-2.422519028E-3
2.831220276E0,4.748262465E-3
2.835964391E0,-1.901619881E-2
2.840708506E0,-2.272099257E-3
2.845452620E0,1.436046511E-2
2.850196735E0,2.351365983E-3
2.854940849E0,7.081218064E-3
2.859684964E0,-2.493403852E-3
2.864429078E0,-2.468466759E-3
2.869173193E0,-7.189497352E-3
2.873917308E0,-4.837512970E-3
2.878661422E0,-2.420395613E-3
2.883405537E0,-7.170535624E-3
2.888149651E0,-1.190911978E-2
2.892893766E0,-4.687301815E-3
2.897637881E0,1.196609437E-2
2.902381995E0,-2.366520464E-3
2.907126110E0,-1.660842448E-2
2.911870224E0,-4.629924893E-3
2.916614339E0,7.305011153E-3
2.921358453E0,7.276080549E-3
2.926102568E0,2.620219439E-2
2.930846683E0,2.836041898E-2
2.935590797E0,-7.437206805E-3
2.940334912E0,-2.526566386E-4
2.945079026E0,1.873666048E-2
2.949823141E0,6.691776216E-3
2.954567256E0,4.266820848E-3
2.959311370E0,6.608314812E-3
2.964055485E0,-5.616918206E-4
2.968799599E0,-1.247400045E-2
2.973543714E0,1.136222482E-2
2.978287828E0,-2.937577665E-3
2.983031943E0,-2.909414470E-3
2.987776058E0,4.237629473E-3
2.992520172E0,1.609843969E-2
2.997264287E0,-2.958349884E-3
3.002008401E0,-1.242130250E-2
3.006752516E0,-5.195453763E-3
3.011496631E0,1.617922634E-2
3.016240745E0,6.584808230E-3
3.020984860E0,-5.847737193E-4
3.025728974E0,-2.948865294E-3
3.030473089E0,-5.472451448E-4
3.035217203E0,1.138261706E-2
3.039961318E0,-7.691368461E-3
3.044705433E0,1.604898274E-2
3.049449547E0,6.427623332E-3
3.054193662E0,-5.486421287E-3
3.058937776E0,8.800283074E-3
3.063681891E0,-3.133766353E-3
3.068426058E0,3.986440599E-3
3.073170120E0,-5.506120622E-3
3.077914235E0,-6.820559502E-4
3.082658349E0,-3.044866025E-3
3.087402516E0,-6.706938148E-4
3.092146631E0,1.117474586E-2
3.096890745E0,1.583108306E-2
3.101634860E0,-8.053749800E-3
3.106378974E0,1.537308097E-3
3.111123089E0,1.342108101E-2
3.115867203E0,-8.042536676E-3
3.120611318E0,3.949314356E-3
3.125355433E0,6.264731288E-3
3.130099547E0,1.441985369E-3
3.134843662E0,6.179176271E-3
3.139587776E0,-1.525257528E-2
3.144331891E0,1.100817323E-2
3.149076006E0,-9.160265326E-4
3.153820120E0,-8.023120463E-3
3.158564235E0,1.340359449E-2
3.163308349E0,-1.517923921E-2
3.168052464E0,1.345354319E-2
3.172796578E0,-8.010581136E-3
3.177540693E0,-1.508703828E-2
3.182284808E0,-7.770583034E-4
3.187028922E0,6.323494017E-3
3.191773037E0,-9.006410837E-4
3.196517151E0,8.602313697E-3
3.201261266E0,3.761015832E-3
3.206005381E0,1.319664717E-2
3.210749495E0,-3.519810736E-3
3.215493610E0,-5.831182003E-3
3.220237724E0,-5.778431892E-3
3.224981839E0,-9.523332119E-4
3.229725953E0,1.404158771E-3
3.234470068E0,-5.750745535E-3
3.239214183E0,1.363262534E-3
3.243958297E0,-1.288217306E-2
3.248702412E0,-1.279937476E-2
3.253446526E0,2.053180337E-2
3.258190641E0,6.127566099E-3
3.262934756E0,3.678835928E-3
3.267678870E0,3.623865545E-3
3.272422985E0,-3.520816565E-3
3.277167099E0,1.312285662E-2
3.281911214E0,1.064454764E-2
3.286655328E0,-3.677517176E-3
3.291399443E0,-1.073334366E-2
3.296143558E0,-8.295327425E-3
3.300887672E0,6.043262780E-3
3.305631787E0,-5.867809057E-3
3.310375901E0,3.620281816E-3
3.315120016E0,-8.270129561E-3
3.319864131E0,-1.531593502E-2
3.324608245E0,-1.043861359E-2
3.329352360E0,6.290480494E-3
3.334096474E0,6.270937622E-3
3.338840589E0,3.878206015E-3
3.343584703E0,3.849811852E-3
3.348328818E0,-9.241029620E-4
3.353072933E0,6.234176457E-3
3.357817047E0,8.587516844E-3
3.362561162E0,1.092077047E-2
3.367305276E0,-1.049424708E-2
3.372049391E0,1.326970011E-2
3.376793506E0,-8.193604648E-3
3.381537620E0,-1.758469641E-2
3.386281735E0,1.341323555E-2
3.391025849E0,-9.321421385E-4
3.395769964E0,3.825306892E-3
3.400514078E0,1.569002122E-2
3.405258193E0,6.043411791E-3
3.410002308E0,3.624334931E-3
3.414746422E0,-3.492332995E-3
3.419490537E0,-8.205302060E-3
3.424234651E0,2.034182847E-2
3.428978766E0,1.221671700E-3
3.433722881E0,5.961403251E-3
3.438466995E0,8.288539946E-3
3.443211110E0,3.449618816E-3
3.447955224E0,1.052163541E-3
3.452699339E0,-1.325562596E-3
3.457443453E0,-6.084606051E-3
3.462187568E0,8.235558867E-3
3.466931683E0,-3.693312407E-3
3.471675797E0,1.087158918E-3
3.476419912E0,-8.381262422E-3
3.481164026E0,-1.779878885E-2
3.485908141E0,1.365013421E-3
3.490652256E0,3.758445382E-3
3.495396370E0,1.301683486E-3
3.500140485E0,-5.823887885E-3
3.504884599E0,-1.769234240E-2
3.509628714E0,-9.025409818E-4
3.514372828E0,1.100156456E-2
3.519116943E0,-1.284302026E-2
3.523861058E0,-1.750584692E-2
3.528605172E0,1.109030098E-2
3.533349287E0,-3.235720098E-3
3.538093401E0,-1.035171747E-2
3.542837516E0,-7.832132280E-3
3.547581631E0,-5.333557725E-3
3.552325745E0,6.550975144E-3
3.557069860E0,-2.991445363E-3
3.561813974E0,8.901819587E-3
3.566558089E0,-7.778614759E-3
3.571302203E0,6.499171257E-3
3.576046318E0,-7.269009948E-4
3.580790433E0,1.627475023E-3
3.585534547E0,1.820001006E-2
3.590278662E0,-9.590312839E-4
3.595022776E0,6.171517074E-3
3.599766891E0,1.322008669E-3
3.604511006E0,1.315161586E-3
3.609255120E0,-2.001956850E-2
3.613999235E0,-2.702347189E-2
3.618743349E0,-1.727433503E-2
3.623487464E0,1.372101158E-2
3.628231578E0,-6.544589996E-4
3.632975693E0,6.473794580E-3
3.637719808E0,8.768409491E-3
3.642463922E0,3.953494132E-3
3.647208037E0,-8.495301008E-4
3.651952151E0,3.935724497E-3
3.656696266E0,6.335996091E-3
3.661440381E0,-7.950402796E-3
3.666184495E0,-3.105968237E-3
3.670928610E0,1.590690017E-2
3.675672724E0,-3.204792738E-3
3.680416839E0,1.106265187E-2
3.685160953E0,-9.182617068E-4
3.689905068E0,-1.039774716E-2
3.694649183E0,1.102051884E-2
3.699393297E0,6.187081337E-3
3.704137412E0,6.139442325E-3
3.708881526E0,1.346215606E-3
3.713625641E0,1.367174089E-3
3.718369756E0,6.161481142E-3
3.723113870E0,6.085813046E-3
3.727857985E0,1.081304252E-2
3.732602099E0,1.547286659E-2
3.737346214E0,-1.075361669E-2
3.742090328E0,5.978822708E-3
3.746834443E0,1.186929643E-3
3.751578558E0,1.067201048E-2
3.756322672E0,2.245140821E-2
3.761066787E0,1.034709811E-2
3.765810901E0,3.146149218E-3
3.770555016E0,-1.114191860E-2
3.775299131E0,7.966160774E-3
3.780043245E0,-3.960952163E-3
3.784787360E0,1.028526574E-2
3.789531474E0,2.684215456E-2
3.794275589E0,-1.851946115E-3
3.799019703E0,1.008831710E-2
3.803763818E0,5.318894982E-3
3.808507933E0,-2.319609374E-2
3.813252047E0,3.102831542E-3
3.817996162E0,-1.692861319E-3
3.822740276E0,-1.119508594E-2
3.827484391E0,5.484066904E-3
3.832228506E0,1.490535587E-2
3.836972620E0,1.235569268E-2
3.841716735E0,-4.353754222E-3
3.846460849E0,5.149491131E-3
3.851204964E0,5.166992545E-3
3.855949078E0,2.726733685E-3
3.860693193E0,-1.981802285E-3
3.865437308E0,-2.094514668E-2
3.870181422E0,1.010880619E-2
3.874925537E0,5.310736597E-3
3.879669651E0,4.966482520E-4
3.884413766E0,-1.848198473E-3
3.889157881E0,1.243617386E-2
3.893901995E0,-2.091214061E-2
3.898646110E0,-1.836130768E-2
3.903390224E0,-1.823262125E-2
3.908134339E0,3.222450614E-3
3.912878453E0,1.031841338E-2
3.917622568E0,-1.599319279E-3
3.922366683E0,-6.299346685E-3
3.927110797E0,1.274012774E-2
3.931854912E0,-6.401658058E-3
3.936599026E0,7.460191846E-4
3.941343141E0,5.517728627E-3
3.946087256E0,7.848560810E-3
3.950831370E0,-1.704677939E-3
3.955575485E0,1.017761976E-2
3.960319599E0,7.724091411E-3
3.965063714E0,-4.201002419E-3
3.969807828E0,-3.029201925E-2
3.974551943E0,3.156438470E-3
3.979296058E0,7.851347327E-3
3.984040172E0,6.427168846E-4
3.988784287E0,-8.878245950E-3
3.993528401E0,6.914362311E-4
3.998272516E0,5.491852760E-3
4.003016631E0,-2.299632132E-2
4.007760745E0,5.758091807E-3
4.012504860E0,-1.089637727E-2
4.017248974E0,-1.083013415E-2
4.021993089E0,1.156955957E-3
4.026737151E0,-2.026120573E-2
4.031481318E0,-5.878902972E-3
4.036225381E0,3.694035113E-3
4.040969547E0,1.075758040E-2
4.045713610E0,1.773329824E-2
4.050457724E0,-3.766737878E-3
4.055201839E0,-6.104305387E-3
4.059945953E0,-6.049267948E-3
4.064690068E0,3.496833146E-3
4.069434183E0,-1.551167667E-2
4.074178297E0,-8.288323879E-3
4.078922412E0,-2.482575178E-2
4.083666526E0,-1.272203773E-2
4.088410641E0,-1.741436124E-2
4.093154756E0,1.123752445E-2
4.097898870E0,-5.462370813E-3
4.102642985E0,-2.207960188E-2
4.107387099E0,-1.002702862E-2
4.112131214E0,-9.939305484E-3
4.116875328E0,6.757862866E-3
4.121619443E0,-2.757802606E-3
4.126363558E0,9.104788303E-3
4.131107672E0,-4.309117794E-4
4.135851787E0,-5.168922246E-3
4.140595901E0,-2.748802304E-3
4.145340016E0,2.023793757E-3
4.150084131E0,-1.225493103E-2
4.154828245E0,4.460565746E-3
4.159572360E0,-1.458422095E-2
4.164316474E0,6.896935403E-3
4.169060589E0,9.187549353E-3
4.173804703E0,9.086661041E-3
4.178548818E0,3.274393082E-2
4.183292933E0,-1.023713499E-2
4.188037047E0,-3.029733896E-3
4.192781162E0,1.598250121E-2
4.197525276E0,-7.875584066E-3
4.202269391E0,-7.805787027E-3
4.207013506E0,-1.957298070E-2
4.211757620E0,-2.823770046E-3
4.216501735E0,4.379071295E-3
4.221245849E0,4.374757409E-3
4.225989964E0,-1.698569953E-2
4.230734078E0,-1.212318242E-2
4.235478193E0,-1.679248363E-2
4.240222308E0,1.806765795E-5
4.244966422E0,-9.469933808E-3
4.249710537E0,1.044422388E-4
4.254454651E0,7.253907621E-3
4.259198766E0,5.026161671E-5
4.263942881E0,8.178502321E-5
4.268686995E0,-7.033862174E-3
4.273431110E0,7.209472358E-3
4.278175224E0,-7.083721459E-3
4.282919339E0,6.987899542E-5
4.287663453E0,2.474598587E-3
4.292407568E0,-4.660747945E-3
4.297151683E0,1.193594187E-2
4.301895797E0,2.348639071E-3
4.306639912E0,7.078506052E-3
4.311384026E0,2.248965204E-3
4.316128141E0,-1.677692682E-2
4.320872256E0,-1.428831369E-2
4.325616370E0,9.563744068E-3
4.330360485E0,-3.553926945E-6
4.335104599E0,7.090315223E-3
4.339848714E0,-4.829250276E-3
4.344592776E0,-1.427684724E-2
4.349336943E0,7.201984525E-3
4.354081058E0,4.801265895E-3
4.358825120E0,2.846576273E-2
4.363569287E0,1.399565488E-2
4.368313349E0,1.962050796E-3
4.373057464E0,9.096518159E-3
4.377801631E0,6.680004299E-3
4.382545693E0,-7.637031376E-3
4.387289808E0,1.922063529E-3
4.392033922E0,1.140102744E-2
4.396778037E0,1.605571061E-2
4.401522151E0,2.070008963E-2
4.406266266E0,1.101173460E-2
4.411010381E0,8.494280279E-3
4.415754495E0,-1.091875136E-3
4.420498610E0,6.040252745E-3
4.425242724E0,8.366726339E-3
4.429986839E0,2.013686299E-2
4.434730953E0,9.899213910E-4
4.439475068E0,-1.087905467E-2
4.444219183E0,-3.722317517E-3
4.448963297E0,-6.060257554E-3
4.453707412E0,-2.027114481E-2
4.458451526E0,-2.958957851E-2
4.463195641E0,-8.359923959E-4
4.467939756E0,-8.531138301E-4
4.472683870E0,6.276793778E-3
4.477427985E0,-8.009105921E-3
4.482172099E0,-5.565553904E-3
4.486916214E0,-3.113880754E-3
4.491660328E0,1.355465502E-2
4.496404443E0,8.727885783E-3
4.501148558E0,8.659087121E-3
4.505892672E0,-5.703397095E-3
4.510636787E0,1.810514182E-2
4.515380901E0,3.749378026E-3
4.520125016E0,1.801609248E-2
4.524869131E0,3.661073744E-3
4.529613245E0,-1.294742525E-2
4.534357360E0,1.563922316E-2
4.539101474E0,-8.272022009E-3
4.543845589E0,6.094858050E-3
4.548589703E0,1.302473247E-3
4.553333818E0,-5.823336542E-3
4.558077933E0,-3.341495991E-3
4.562822047E0,-1.523085684E-2
4.567566162E0,-1.275584102E-2
4.572310276E0,1.620173454E-3
4.577054391E0,-1.031031460E-2
4.581798506E0,-3.130070865E-3
4.586542620E0,-7.845580578E-3
4.591286735E0,1.687243581E-3
4.596030849E0,2.308930457E-2
4.600774964E0,1.100840420E-2
4.605519078E0,1.558186859E-2
4.610263141E0,-1.182474196E-3
4.615007256E0,-5.886450410E-3
4.619751370E0,1.792337000E-2
4.624495485E0,1.167520881E-3
4.629239599E0,-1.211166382E-3
4.633983714E0,-5.942918360E-3
4.638727828E0,8.348062634E-3
4.643471943E0,-1.180849969E-3
4.648216058E0,-1.780575514E-2
4.652960172E0,1.301370561E-3
4.657704287E0,8.441343904E-3
4.662448401E0,-1.775503159E-2
4.667192516E0,-1.285809278E-2
4.671936631E0,2.521885931E-2
4.676680745E0,6.001316011E-3
4.681424860E0,3.582358360E-3
4.686168974E0,-1.189559698E-3
4.690913089E0,-1.309663802E-2
4.695657203E0,-1.063894480E-2
4.700401318E0,3.662928939E-3
4.705145433E0,1.235686243E-3
4.709889547E0,-1.540887356E-2
4.714633662E0,-1.290341467E-2
4.719377776E0,1.473590732E-3
4.724121891E0,1.465231180E-3
4.728866006E0,1.512974501E-3
4.733610120E0,8.594684303E-3
4.738354235E0,-9.930208325E-4
4.743098349E0,-3.325693309E-3
4.747842464E0,-1.281406730E-2
4.752586578E0,6.307944655E-3
4.757330693E0,-1.035110652E-2
4.762074808E0,3.920122981E-3
4.766818922E0,1.341116428E-2
4.771563037E0,-9.624361992E-4
4.776307151E0,-5.696259439E-3
4.781051266E0,-8.045993745E-3
4.785795381E0,3.917634487E-3
4.790539495E0,3.916926682E-3
4.795283610E0,-1.749598235E-2
4.800027724E0,-3.080472350E-3
4.804771787E0,-1.016975939E-2
4.809515953E0,-3.019161522E-3
4.814260016E0,-6.454288960E-4
4.819004183E0,-6.923824549E-4
4.823748245E0,-1.257488132E-2
4.828492360E0,6.516888738E-3
4.833236474E0,-3.053031862E-3
4.837980589E0,2.073388547E-2
4.842724703E0,2.768367529E-2
4.847468818E0,3.728069365E-3
4.852212933E0,-3.417477012E-3
4.856957047E0,1.360930502E-3
4.861701162E0,3.754399717E-3
4.866445276E0,-1.522751898E-2
4.871189391E0,-3.288537264E-3
4.875933506E0,-3.313936293E-3
4.880677620E0,-3.282397985E-3
4.885421735E0,1.813307405E-2
4.890165849E0,-9.691491723E-4
4.894909964E0,-9.573847055E-4
4.899654078E0,1.089067757E-2
4.904398193E0,-5.834810436E-3
4.909142308E0,8.455030620E-3
4.913886422E0,-1.018047333E-3
4.918630537E0,-8.124291897E-3
4.923374651E0,-1.514282823E-2
4.928118766E0,-1.263983548E-2
4.932862881E0,-7.813297212E-3
4.937606995E0,2.073056251E-2
4.942351110E0,-7.941097021E-3
4.947095224E0,-1.730603725E-2
4.951839339E0,-1.003947854E-2
4.956583453E0,4.285633564E-3
4.961327568E0,-1.230029762E-2
4.966071683E0,2.128407359E-3
4.970815797E0,-2.580508590E-4
4.975559912E0,-2.155143023E-2
4.980304026E0,-2.441570163E-3
4.985048089E0,9.419098496E-3
4.989792256E0,-1.467540860E-4
4.994536318E0,-1.978650689E-4
4.999280485E0,-2.565413713E-3
5.004024547E0,2.205662429E-3
5.008768662E0,2.219691873E-3
5.013512776E0,-7.314890623E-3
5.018256891E0,9.359464049E-3
5.023001006E0,-2.494506538E-3
5.027745120E0,-9.737163782E-5
5.032489235E0,1.654578745E-2
5.037233349E0,9.321205318E-3
5.041977464E0,6.874337792E-3
5.046721578E0,9.222351015E-3
5.051465693E0,-1.220652461E-2
5.056209808E0,1.402883977E-2
5.060953922E0,1.394363493E-2
5.065698037E0,-1.464322209E-2
5.070442151E0,4.465781152E-3
5.075186266E0,-1.217768341E-2
5.079930381E0,-4.953868687E-3
5.084674495E0,1.647577435E-2
5.089418610E0,-7.386423647E-3
5.094162724E0,4.514977336E-3
5.098906839E0,4.509776831E-3
5.103650953E0,1.156651974E-2
5.108395068E0,-2.763234079E-3
5.113139183E0,-9.855173528E-3
5.117883297E0,1.393121481E-2
5.122627412E0,1.144592464E-2
5.127371526E0,1.610023528E-2
5.132115641E0,1.122470200E-2
5.136859756E0,-1.739599556E-2
5.141603870E0,-1.490293443E-2
5.146347985E0,6.608895957E-3
5.151092099E0,-2.961777151E-3
5.155836214E0,-2.933174372E-3
5.160580328E0,-5.277924240E-3
5.165324443E0,-5.124956369E-4
5.170068558E0,1.613388956E-2
5.174812620E0,-2.979934216E-3
5.179556735E0,-1.004181057E-2
5.184300849E0,-5.151934922E-3
5.189044964E0,9.103499353E-3
5.193789078E0,-2.861097455E-3
5.198533193E0,4.228815436E-3
5.203277308E0,-2.920910716E-3
5.208021422E0,-5.294002593E-3
5.212765537E0,6.618209183E-3
5.217509651E0,6.538271904E-3
5.222253766E0,-5.404934287E-3
5.226997881E0,-2.983547747E-3
5.231741995E0,-5.536153913E-4
5.236486110E0,-5.170553923E-4
5.241230224E0,8.953988552E-3
5.245974339E0,-7.727108896E-3
5.250718453E0,-2.940803766E-3
5.255462568E0,1.607093215E-2
5.260206683E0,6.420917809E-3
5.264950797E0,6.371110678E-3
5.269694912E0,2.296037972E-2
5.274439026E0,-1.047539711E-2
5.279183141E0,3.909848630E-3
5.283927256E0,-5.638808012E-3
5.288671370E0,-5.587890744E-3
5.293415485E0,-1.500090957E-2
5.298159599E0,1.709952950E-3
5.302903714E0,-7.791899145E-3
5.307647828E0,-1.484215260E-2
5.312391943E0,-1.234212518E-2
5.317136058E0,2.030201256E-3
5.321880172E0,-3.563687205E-4
5.326624287E0,-5.123957992E-3
5.331368349E0,-7.421955466E-3
5.336112464E0,6.880879402E-3
5.340856578E0,-2.631470561E-4
5.345600693E0,-9.748555720E-3
5.350344808E0,-7.290259004E-3
5.355088922E0,-7.225565612E-3
5.359833037E0,2.358362079E-3
5.364577151E0,7.059909403E-3
5.369321266E0,-7.289014757E-3
5.374065381E0,-1.339390874E-4
5.378809495E0,2.215504646E-3
5.383553610E0,-4.917904735E-3
5.388297724E0,2.273447812E-3
5.393041839E0,-4.916951060E-3
5.397785953E0,-1.545250416E-4
5.402530068E0,2.223812044E-3
5.407274183E0,-1.434423029E-2
5.412018297E0,-4.672728479E-3
5.416762412E0,9.607203305E-3
5.421506526E0,1.130253077E-5
5.426250641E0,1.899819821E-2
5.430994756E0,-7.258124650E-3
5.435738870E0,4.642680287E-3
5.440482985E0,4.635937512E-3
5.445227099E0,-2.489387989E-3
5.449971214E0,-9.583353996E-3
5.454715328E0,-4.782035947E-3
5.459459443E0,-1.191364229E-2
5.464203558E0,-4.691772163E-3
5.468947672E0,-1.176738739E-2
5.473691787E0,-1.638291031E-2
5.478435849E0,2.797350287E-3
5.483179964E0,7.438510656E-3
5.487924078E0,2.622902393E-4
5.492668193E0,-9.256213903E-3
5.497412308E0,-4.373118281E-3
5.502156422E0,5.186796188E-3
5.506900537E0,-4.400514066E-3
5.511644651E0,2.758510411E-3
5.516388766E0,-1.384270936E-2
5.521132881E0,-6.633482873E-3
5.525876995E0,5.721673369E-4
5.530621110E0,-4.202686250E-3
5.535365224E0,-1.128214598E-2
5.540109339E0,1.020000130E-2
5.544853453E0,-1.717224717E-3
5.549597568E0,-1.356362551E-2
5.554341683E0,-3.955125809E-3
5.559085797E0,5.573056638E-3
5.563829912E0,8.130446076E-4
5.568574026E0,-1.345534623E-2
5.573318141E0,-8.593752980E-3
5.578062256E0,1.001581550E-3
5.582806370E0,5.742929876E-3
5.587550485E0,-1.476131380E-3
5.592294599E0,-1.566872001E-2
5.597038714E0,8.222624660E-3
5.601782828E0,5.784921348E-3
5.606526943E0,-3.751106560E-3
5.611271058E0,-1.320767403E-2
5.616015172E0,1.060689986E-2
5.620759235E0,-3.714844584E-3
5.625503349E0,1.055710763E-2
5.630247464E0,1.513408124E-2
5.634991578E0,-3.971152008E-3
5.639735693E0,1.264780015E-2
5.644479808E0,7.101818919E-4
5.649223922E0,1.257260889E-2
5.653968037E0,-6.539769471E-3
5.658712151E0,6.095319986E-4
5.663456266E0,5.382157862E-3
5.668200381E0,-4.178531468E-3
5.672944495E0,6.055235863E-4
5.677688610E0,-1.768469810E-3
5.682432724E0,2.967484295E-3
5.687176839E0,5.735754967E-4
5.691920953E0,5.318485200E-3
5.696665068E0,1.714205742E-2
5.701409183E0,-6.725676358E-3
5.706153297E0,-4.264801741E-3
5.710897412E0,-8.999586105E-3
5.715641526E0,-1.369490474E-2
5.720385641E0,-1.826611161E-2
5.725129756E0,-3.872655332E-3
5.729873870E0,-3.836445510E-3
5.734617985E0,9.734779596E-4
5.739362047E0,5.771093071E-3
5.744106214E0,1.065939665E-3
5.748850328E0,-3.684774041E-3
5.753594391E0,8.157528937E-3
5.758338506E0,8.065000176E-3
5.763082620E0,-6.264276803E-3
5.767826735E0,8.028909564E-3
5.772570849E0,-1.497812569E-3
5.777314964E0,-1.481629908E-3
5.782059078E0,3.280654550E-3
5.786803193E0,-6.233811378E-3
5.791547308E0,-6.149679422E-3
5.796291422E0,2.003568411E-2
5.801035537E0,1.272621751E-2
5.805779651E0,3.104329109E-3
5.810523766E0,-4.036024213E-3
5.815267881E0,-1.625575125E-3
5.820011995E0,1.028433442E-2
5.824756110E0,-1.352649182E-2
5.829500224E0,1.506475359E-2
5.834244339E0,1.734428853E-2
5.838988453E0,-2.081894130E-2
5.843732568E0,7.144361734E-4
5.848476683E0,-8.722618222E-3
5.853220797E0,-3.871977329E-3
5.857964912E0,9.099990129E-4
5.862709026E0,-1.807624847E-2
5.867453141E0,1.770003885E-2
5.872197256E0,3.319181502E-3
5.876941370E0,1.753251255E-2
5.881685485E0,3.152586520E-3
5.886429547E0,-1.672260463E-3
5.891173662E0,2.919308841E-2
5.895917776E0,1.708910614E-2
5.900661891E0,2.684615552E-3
5.905406006E0,5.095556378E-3
5.910150120E0,-1.158116758E-2
5.914894235E0,-9.135864675E-3
5.919638349E0,-1.965634525E-3
5.924382464E0,-6.719328463E-3
5.929126578E0,-1.612246037E-2
5.933870693E0,6.542652845E-4
5.938614808E0,-6.494149566E-3
5.943358922E0,-1.718819141E-3
5.948103037E0,-1.831050962E-2
5.952847151E0,8.575618267E-4
5.957591266E0,1.986565441E-2
5.962335381E0,-8.798569441E-3
5.967079495E0,7.889091969E-3
5.971823610E0,-6.438247859E-3
5.976567724E0,1.969255507E-2
5.981311839E0,1.009733975E-2
5.986055953E0,2.419815212E-2
5.990800068E0,4.988886416E-3
5.995544183E0,-9.286038578E-3
6.000288297E0,-1.163409650E-2
6.005032412E0,-2.013668418E-3
6.009776474E0,1.696161926E-2
6.014520641E0,7.304184139E-3
6.019264703E0,2.416737378E-3
6.024008818E0,2.741813660E-5
6.028752933E0,5.890429020E-5
6.033497047E0,-7.056534290E-3
6.038241162E0,7.243484259E-3
6.042985276E0,7.186822593E-3
6.047729391E0,4.047900438E-5
6.052473506E0,-1.170735061E-2
6.057217620E0,2.585574985E-4
6.061961735E0,9.780108929E-3
6.066705849E0,9.730555117E-3
6.071449964E0,2.506271005E-3
6.076194078E0,-1.177646965E-2
6.080938193E0,-2.182632685E-3
6.085682308E0,1.841261983E-4
6.090426422E0,1.867562532E-4
6.095170537E0,1.326352358E-4
6.099914651E0,9.655237198E-3
6.104658766E0,4.832707345E-3
6.109402881E0,-2.350524068E-3
6.114146995E0,1.900045574E-2
6.118891110E0,-7.227636874E-3
6.123635224E0,-7.135219872E-3
6.128379339E0,-2.382799983E-3
6.133123453E0,-9.505905211E-3
6.137867516E0,-1.888580620E-2
6.142611631E0,-9.233191609E-3
6.147355745E0,9.830750525E-3
6.152099860E0,5.006991327E-3
6.156843974E0,4.968971014E-3
6.161588089E0,2.558387816E-3
6.166332203E0,7.315002382E-3
6.171076318E0,-2.290055156E-3
6.175820433E0,4.823349416E-3
6.180564547E0,4.787087440E-3
6.185308662E0,-4.769355059E-3
6.190052776E0,-4.754170775E-3
6.194796891E0,-7.083266973E-3
6.199541006E0,-1.411071420E-2
6.204285120E0,9.739868343E-3
6.209029235E0,2.152728289E-2
6.213773349E0,-9.439155459E-3
6.218517464E0,1.908954233E-2
6.223261578E0,-7.167071104E-3
6.228005693E0,4.732735455E-3
6.232749808E0,4.668973386E-3
6.237493922E0,-4.829511046E-3
6.242238037E0,1.419795305E-2
6.246982151E0,2.218931913E-3
6.251726266E0,1.175216585E-2
6.256470328E0,-1.678817719E-2
6.261214443E0,2.338491380E-3
6.265958558E0,9.413331747E-3
6.270702672E0,9.310334921E-3
6.275446787E0,-2.835616469E-4
6.280190901E0,6.841376424E-3
6.284935016E0,1.393543184E-2
6.289679131E0,-7.504448295E-3
6.294423245E0,1.154530793E-2
6.299167360E0,-3.826543689E-4
6.303911474E0,-1.226843894E-2
6.308655589E0,9.221926332E-3
6.313399703E0,1.152189821E-2
6.318143818E0,-1.704454422E-2
6.322887933E0,-7.378317416E-3
6.327632047E0,-1.443131268E-2
6.332376162E0,2.303063869E-3
6.337120276E0,1.183605939E-2
6.341864391E0,-1.198769361E-2
6.346608506E0,-1.660138369E-2
6.351352620E0,-4.651658237E-3
6.356096735E0,-2.236545086E-3
6.360840849E0,2.151485533E-2
6.365584964E0,-4.421919584E-5
6.370329078E0,-1.166760921E-5
6.375073141E0,-7.126279175E-3
6.379817308E0,-1.050531864E-6
6.384561370E0,7.178030908E-3
6.389305485E0,-9.487792850E-3
6.394049599E0,4.804477096E-3
6.398793714E0,7.197760046E-3
6.403537828E0,2.308189869E-5
6.408281943E0,9.518347681E-3
6.413026058E0,7.098324597E-3
6.417770172E0,4.670456052E-3
6.422514287E0,1.178260148E-2
6.427258401E0,1.646236330E-2
6.432002516E0,-2.653948963E-3
6.436746631E0,4.519224167E-3
6.441490745E0,-3.167614341E-4
6.446234860E0,-2.819374204E-4
6.450978974E0,-2.677030861E-3
6.455723089E0,-2.163407952E-2
6.460467203E0,4.623122513E-3
6.465211318E0,-1.439475268E-2
6.469955433E0,4.711955786E-3
6.474699547E0,-4.814893007E-3
6.479443662E0,-7.200218737E-3
6.484187776E0,1.190327853E-2
6.488931891E0,-9.576171637E-3
6.493676006E0,-2.938508987E-5
6.498420120E0,7.065176964E-3
6.503164183E0,-4.910446703E-3
6.507908297E0,-1.201248914E-2
6.512652412E0,-7.162675261E-3
6.517396526E0,-4.754424095E-3
6.522140641E0,1.192708313E-2
6.526884756E0,-9.524315596E-3
6.531628870E0,-7.067888975E-3
6.536372985E0,-4.632644355E-3
6.541117099E0,1.276433468E-4
6.545861214E0,1.309812069E-4
6.550605328E0,2.479158342E-3
6.555349443E0,1.201092452E-2
6.560093558E0,1.431566477E-2
6.564837672E0,-2.438597381E-3
6.569581787E0,7.105194032E-3
6.574325901E0,9.422570467E-3
6.579070016E0,-1.435354352E-4
6.583814131E0,7.008247077E-3
6.588558245E0,6.896801293E-3
6.593302360E0,9.215205908E-3
6.598046474E0,1.994982362E-3
6.602790589E0,-4.468634725E-4
6.607534703E0,-4.111900926E-4
6.612278766E0,1.383346319E-2
6.617022881E0,-2.189936489E-2
6.621766995E0,-1.219292730E-2
6.626511162E0,-9.714268148E-3
6.631255224E0,-2.510726452E-3
6.635999339E0,1.409582049E-2
6.640743453E0,1.867178082E-2
6.645487568E0,2.806814760E-2
6.650231683E0,8.855119348E-3
6.654975797E0,-6.777867675E-4
6.659719912E0,1.356884837E-2
6.664464026E0,-7.780417800E-4
6.669208141E0,-7.391422987E-4
6.673952256E0,-2.685900778E-2
6.678696370E0,-2.423011512E-2
6.683440485E0,6.850749254E-3
6.688184599E0,9.085722268E-3
6.692928714E0,1.138658822E-2
6.697672828E0,6.521381438E-3
6.702416943E0,-1.019594073E-2
6.707161058E0,-3.045126796E-3
6.711905172E0,-3.044068813E-3
6.716649287E0,-3.014996648E-3
6.721393401E0,-2.958163619E-3
6.726137516E0,4.217304289E-3
6.730881631E0,-5.598962307E-4
6.735625745E0,-2.952672541E-3
6.740369808E0,1.821629703E-3
6.745113922E0,-2.907373011E-3
6.749858037E0,-1.479989290E-2
6.754602151E0,-1.470111310E-2
6.759346266E0,-7.456488907E-3
6.764090381E0,6.790593266E-3
6.768834495E0,1.151242107E-2
6.773578610E0,2.088322490E-2
6.778322724E0,1.125007868E-2
6.783066839E0,1.113200933E-2
6.787810953E0,-9.059756994E-4
6.792555068E0,1.478396356E-3
6.797299183E0,6.215766072E-3
6.802043297E0,-8.069381118E-3
6.806787412E0,6.267331541E-3
6.811531526E0,-5.617119372E-3
6.816275641E0,1.552276313E-3
6.821019756E0,3.887422383E-3
6.825763870E0,-8.005909622E-3
6.830507985E0,-1.502589881E-2
6.835252099E0,8.803352714E-3
6.839996214E0,8.762173355E-3
6.844740328E0,6.348215044E-3
6.849484443E0,3.925897181E-3
6.854228558E0,1.552253962E-3
6.858972672E0,-1.037766039E-2
6.863716735E0,-7.914587855E-3
6.868460849E0,-1.493533701E-2
6.873204964E0,-1.720785350E-2
6.877949078E0,4.267401993E-3
6.882693193E0,-5.255989730E-3
6.887437308E0,1.881904900E-3
6.892181422E0,8.988790214E-3
6.896925537E0,1.770928502E-3
6.901669651E0,1.359625906E-2
6.906413766E0,1.622021198E-3
6.911157881E0,6.330408156E-3
6.915901995E0,3.937184811E-3
6.920646110E0,1.339960098E-2
6.925390224E0,-3.318071365E-3
6.930134339E0,-9.135976434E-4
6.934878453E0,-3.274708986E-3
6.939622568E0,8.649639785E-3
6.944366683E0,-1.277398318E-2
6.949110797E0,-3.172062337E-3
6.953854912E0,-7.887691259E-3
6.958599026E0,1.617237926E-3
6.963343141E0,8.698314428E-3
6.968087256E0,-1.507104933E-2
6.972831370E0,-5.421981215E-3
6.977575433E0,1.802511513E-3
6.982319547E0,-5.326762795E-3
6.987063662E0,-2.933807671E-3
6.991807776E0,-5.250059068E-3
6.996551891E0,-1.232126355E-2
7.001296006E0,-9.870491922E-3
7.006040120E0,2.079874277E-3
7.010784235E0,-9.797714651E-3
7.015528349E0,4.525162280E-3
7.020272464E0,-3.110989928E-4
7.025016578E0,4.413396120E-3
7.029760693E0,-1.222961396E-2
7.034504808E0,-1.212376356E-2
7.039248922E0,4.619628191E-3
7.043993037E0,-1.445448399E-2
7.048737151E0,-2.465918660E-3
7.053481266E0,-4.814550281E-3
7.058225381E0,-1.426249743E-2
7.062969495E0,9.588882327E-3
7.067713610E0,-4.695907235E-3
7.072457724E0,9.293109179E-5
7.077201839E0,2.525471151E-3
7.081945953E0,1.357123256E-4
7.086690068E0,-1.178216934E-2
7.091434131E0,-9.279154241E-3
7.096178297E0,-2.051226795E-3
7.100922360E0,3.707036376E-4
7.105666474E0,2.181199938E-2
7.110410589E0,1.923303306E-2
7.115154703E0,9.556911886E-3
7.119898818E0,-6.658583879E-5
7.124642933E0,-7.180742919E-3
7.129387047E0,4.803694785E-3
7.134131162E0,9.541846812E-3
7.138875276E0,9.494513273E-3
7.143619391E0,-1.433774829E-2
7.148363506E0,-2.378173172E-3
7.153107620E0,1.428399980E-2
7.157851735E0,-4.814624786E-3
7.162595849E0,2.319596708E-3
7.167339964E0,-2.441562712E-3
7.172084078E0,-1.428145915E-2
7.176828193E0,-2.293400466E-3
7.181572308E0,-9.417250752E-3
7.186316422E0,2.557590604E-3
7.191060537E0,2.596706152E-3
7.195804651E0,-9.313665330E-3
7.200548766E0,2.660550177E-3
7.205292881E0,1.447846740E-2
7.210036995E0,-4.706054926E-3
7.214781058E0,1.434840262E-2
7.219525224E0,-2.377174795E-3
7.224269287E0,-4.670053720E-3
7.229013401E0,-6.999850273E-3
7.233757516E0,2.553947270E-3
7.238501631E0,7.310368121E-3
7.243245745E0,-7.012151182E-3
7.247989860E0,7.287733257E-3
7.252733974E0,1.123026013E-4
7.257478089E0,1.148283482E-4
7.262222203E0,4.863560200E-3
7.266966318E0,-4.693284631E-3
7.271710433E0,2.385235578E-2
7.276454547E0,1.422224939E-2
7.281198662E0,9.361907840E-3
7.285942776E0,-4.949465394E-3
7.290686891E0,-1.867637038E-4
7.295431006E0,-2.582408488E-3
7.300175120E0,-1.560524106E-4
7.304919235E0,-2.628101408E-2
7.309663349E0,1.515448093E-5
7.314407464E0,1.191137731E-2
7.319151578E0,-2.449490130E-3
7.323895693E0,9.411022067E-3
7.328639756E0,2.217881382E-3
7.333383922E0,-1.415312290E-4
7.338127985E0,2.264238894E-3
7.342872099E0,1.645834744E-2
7.347616214E0,-5.031056702E-3
7.352360328E0,2.111673355E-2
7.357104443E0,-1.230391115E-2
7.361848558E0,1.390402764E-2
7.366592672E0,-4.451870918E-4
7.371336787E0,-9.929075837E-3
7.376080901E0,4.423141479E-3
7.380825016E0,6.762862206E-3
7.385569131E0,1.145573705E-2
7.390313245E0,-2.844832838E-3
7.395057360E0,4.273667932E-3
7.399801474E0,-7.650904357E-3
7.404545589E0,-4.645660520E-4
7.409289703E0,-9.948305786E-3
7.414033818E0,-2.743057907E-3
7.418777933E0,1.389343292E-2
7.423522047E0,2.002157271E-3
7.428266162E0,1.385333389E-2
7.433010276E0,-5.237087607E-4
7.437754391E0,1.612277329E-2
7.442498453E0,1.596386731E-2
7.447242620E0,-5.549661815E-3
7.451986735E0,6.393402815E-3
7.456730797E0,8.689165115E-3
7.461474912E0,8.620917797E-3
7.466219026E0,-8.056938648E-3
7.470963141E0,-8.014112711E-3
7.475707256E0,1.341253519E-2
7.480451370E0,1.411810517E-3
7.485195485E0,8.494600654E-3
7.489939599E0,-8.210673928E-3
7.494683714E0,-1.053945720E-2
7.499427828E0,-1.282057911E-2
7.504171943E0,-1.276630163E-2
7.508916058E0,-3.192938864E-3
7.513660172E0,-1.268264651E-2
7.518404287E0,-6.805881858E-4
7.523148401E0,1.729674637E-3
7.527892516E0,1.121071726E-2
7.532636631E0,-5.517430604E-3
7.537380745E0,8.741289377E-3
7.542124860E0,1.553498209E-3
7.546868974E0,-5.489423871E-3
7.551613089E0,-5.439512432E-3
7.556357203E0,6.474390626E-3
7.561101318E0,1.828855276E-2
7.565845433E0,-3.215856850E-3
7.570589547E0,1.817081869E-2
7.575333662E0,-1.522550732E-2
7.580077776E0,-5.602940917E-3
7.584821839E0,1.105761528E-2
7.589565953E0,1.096940041E-2
7.594310068E0,3.734789789E-3
7.599054183E0,-3.439292312E-3
7.603798297E0,-5.808062851E-3
7.608542412E0,3.707543015E-3
7.613286526E0,-2.004825324E-2
7.618030641E0,1.478925347E-3
7.622774756E0,-8.743330836E-4
7.627518870E0,1.097280532E-2
7.632262985E0,-3.324218094E-3
7.637007099E0,-9.196996689E-4
7.641751214E0,8.555166423E-3
7.646495328E0,6.171405315E-3
7.651239443E0,-3.339372575E-3
7.655983558E0,3.810793161E-3
7.660727672E0,-5.652293563E-3
7.665471787E0,-5.572780967E-3
7.670215901E0,-7.923543453E-3
7.674960016E0,8.756816387E-3
7.679704131E0,-1.266793907E-2
7.684448245E0,2.543569356E-2
7.689192308E0,-3.246925771E-3
7.693936422E0,3.874458373E-3
7.698680537E0,-8.046783507E-3
7.703424651E0,-8.569210768E-4
7.708168766E0,-1.033762097E-2
7.712912881E0,-7.903136313E-3
7.717656995E0,6.432421505E-3
7.722401110E0,4.038117826E-3
7.727145224E0,-7.855780423E-3
7.731889339E0,1.594243944E-2
7.736633453E0,3.948859870E-3
7.741377568E0,-3.198757768E-3
7.746121683E0,1.587115228E-2
7.750865797E0,1.533545554E-3
7.755609912E0,-5.565933883E-3
7.760354026E0,1.346720010E-2
7.765098141E0,-3.279991448E-3
7.769842256E0,3.897458315E-3
7.774586370E0,-3.249734640E-3
7.779330485E0,-2.694731951E-2
7.784074599E0,8.874170482E-3
7.788818714E0,-6.873756647E-4
7.793562828E0,6.440907717E-3
7.798306943E0,6.390929222E-3
7.803051058E0,-7.492527366E-4
7.807795172E0,6.407804787E-3
7.812539287E0,-1.025184244E-2
7.817283349E0,2.545899898E-2
7.822027464E0,3.923073411E-3
7.826771578E0,-3.196321428E-3
7.831515693E0,6.325528026E-3
7.836259808E0,-1.273502409E-2
7.841003922E0,-1.502633095E-2
7.845748037E0,-3.004752100E-3
7.850492151E0,8.860386908E-3
7.855236266E0,-1.256568730E-2
7.859980381E0,-6.211027503E-4
7.864724495E0,-6.407126784E-4
7.869468610E0,-1.252458245E-2
7.874212724E0,-5.297631025E-3
7.878956839E0,-7.622435689E-3
7.883700953E0,4.280939698E-3
7.888445068E0,-2.897925675E-3
7.893189183E0,1.379729062E-2
7.897933297E0,-1.244370639E-2
7.902677412E0,-1.233631372E-2
7.907421526E0,4.409067333E-3
7.912165641E0,-9.889282286E-3
7.916909756E0,6.779454648E-3
7.921653870E0,-1.940329373E-2
7.926397985E0,6.892286241E-3
7.931142099E0,-2.640981227E-2
7.935886214E0,2.260774374E-3
7.940630276E0,-7.245436311E-3
7.945374443E0,4.683509469E-3
7.950118506E0,-1.676402241E-2
7.954862672E0,1.425556093E-2
7.959606735E0,-6.810575724E-5
7.964350849E0,1.886248589E-2
7.969094964E0,-2.740621567E-4
7.973839078E0,-2.393648028E-4
7.978583193E0,2.139441669E-3
7.983327308E0,-2.473369241E-4
7.988071422E0,-9.732879698E-3
7.992815537E0,-9.648077190E-3
7.997559651E0,-4.818215966E-3
8.002303766E0,7.118284702E-3
8.007047881E0,1.895579696E-2
8.011791995E0,-1.207395643E-2
8.016536110E0,7.041662931E-3
8.021280224E0,-1.439727098E-2
8.026024339E0,7.025845349E-3
8.030768453E0,2.196989954E-3
8.035512568E0,-2.563156188E-3
8.040256683E0,-1.649782062E-4
8.045000797E0,-4.933923483E-3
8.049744912E0,-1.206401736E-2
8.054489026E0,7.022798061E-3
8.059233141E0,2.250470221E-3
8.063977256E0,4.580274224E-3
8.068721370E0,1.166468859E-2
8.073465485E0,2.051644027E-3
8.078209547E0,2.010233700E-3
8.082953662E0,-3.752410412E-4
8.087697776E0,-5.142197013E-3
8.092441891E0,-5.095183849E-3
8.097186006E0,-1.456834376E-2
8.101930120E0,-9.697251022E-3
8.106674235E0,-2.494096756E-3
8.111418349E0,-1.247376204E-4
8.116162464E0,2.225093544E-3
8.120906578E0,-2.563767135E-3
8.125650693E0,2.207063138E-3
8.130394808E0,9.339496493E-3
8.135138922E0,9.237580001E-3
8.139883037E0,4.418767989E-3
8.144627151E0,2.012774348E-3
8.149371266E0,-3.734081984E-4
8.154115381E0,-1.689226925E-2
8.158859495E0,9.381927550E-3
8.163603610E0,9.279429913E-3
8.168347724E0,9.206041694E-3
8.173091839E0,9.161509573E-3
8.177835953E0,1.970462501E-3
8.182580068E0,-9.906902909E-3
8.187324183E0,9.190902114E-3
8.192068297E0,-1.929961890E-2
8.196812412E0,1.883149892E-2
8.201556526E0,-3.045499325E-4
8.206300589E0,-1.693674922E-2
8.211044703E0,-2.396681160E-2
8.215788818E0,-9.469598532E-3
8.220532933E0,1.671496779E-2
8.225277047E0,-1.429634541E-2
8.230021162E0,-4.681743681E-3
8.234765276E0,1.668889821E-2
8.239509391E0,4.689343274E-3
8.244253506E0,-1.195596904E-2
8.248997620E0,-1.646578312E-5
8.253741735E0,7.077522576E-3
8.258485849E0,-1.670611650E-2
8.263229964E0,-7.071420550E-3
8.267974078E0,1.434714347E-2
8.272718193E0,1.425953209E-2
8.277462308E0,2.279996872E-3
8.282206422E0,-1.359730959E-4
8.286950537E0,6.987959146E-3
8.291694651E0,1.170767844E-2
8.296438766E0,2.151235938E-3
8.301182881E0,9.284138680E-3
8.305926995E0,-7.399462163E-3
8.310671110E0,4.559017718E-3
8.315415224E0,2.152092755E-3
8.320159339E0,-4.980556667E-3
8.324903453E0,1.644884050E-2
8.329647568E0,4.422798753E-3
8.334391631E0,-2.728998661E-3
8.339135797E0,2.071462572E-3
8.343879860E0,1.154942811E-2
8.348623974E0,-4.357770085E-4
8.353368089E0,-1.229240000E-2
8.358112203E0,-7.440030575E-3
8.362856318E0,1.638297737E-2
8.367600433E0,-5.105324090E-3
8.372344547E0,-9.805075824E-3
8.377088662E0,-7.375031710E-3
8.381832776E0,-2.535626292E-3
8.386576891E0,1.409961283E-2
8.391321006E0,-5.025252700E-3
8.396065120E0,-2.578310668E-3
8.400809235E0,6.966881454E-3
8.405553349E0,-2.061128616E-4
8.410297464E0,4.573307931E-3
8.415041578E0,-1.204302907E-2
8.419785693E0,-7.164716721E-3
8.424529808E0,-2.368347347E-2
8.429273922E0,-4.470862448E-3
8.434018037E0,-2.341272682E-2
8.438762151E0,-1.885995269E-3
8.443506266E0,5.252301693E-3
8.448250381E0,-9.081564844E-3
8.452994495E0,7.607989013E-3
8.457738610E0,-1.914985478E-3
8.462482724E0,5.166582763E-3
8.467226839E0,7.500350475E-3
8.471970901E0,1.693332195E-2
8.476715068E0,-1.162194461E-2
8.481459131E0,-9.148277342E-3
8.486203245E0,-1.949451864E-3
8.490947360E0,-1.901023090E-3
8.495691474E0,-1.909732819E-3
8.500435589E0,-1.372651756E-2
8.505179703E0,5.402870476E-3
8.509923818E0,-1.785583794E-3
8.514667933E0,1.012589037E-2
8.519412047E0,2.870298922E-3
8.524156162E0,5.195163190E-3
8.528900276E0,2.754680812E-3
8.533644391E0,5.108535290E-3
8.538388506E0,2.725034952E-3
8.543132620E0,3.048926592E-4
8.547876735E0,-9.185247123E-3
8.552620849E0,2.731397748E-3
8.557364964E0,-1.627073437E-2
8.562108330E0,4.787445068E-4
8.566852445E0,2.851337194E-3
8.571596560E0,-1.914493740E-3
8.576340674E0,-1.373076439E-2
8.581084789E0,-1.776479185E-3
8.585828903E0,-1.814015210E-3
8.590573018E0,2.979055047E-3
8.595317133E0,7.675901055E-3
8.600061247E0,-4.248529673E-3
8.604805362E0,1.951963454E-2
8.609549424E0,-1.154353470E-2
8.614293591E0,5.195021629E-3
8.619037653E0,1.701985300E-2
8.623781768E0,-4.473984241E-3
8.628525883E0,-2.031169832E-3
8.633269997E0,-4.439465702E-3
8.638014112E0,1.695717126E-2
8.642758226E0,-4.536606371E-3
8.647502341E0,7.340587676E-3
8.652246455E0,7.311597466E-3
8.656990570E0,-4.609331489E-3
8.661734685E0,-6.939865649E-3
8.666478799E0,4.985608160E-3
8.671222914E0,-1.166240871E-2
8.675967028E0,3.031343222E-4
8.680711143E0,-2.096831799E-3
8.685455258E0,-1.156695187E-2
8.690199372E0,1.226242632E-2
8.694943487E0,7.390156388E-3
8.699688122E0,-6.904773414E-3
8.704432237E0,1.448438317E-2
8.709176351E0,4.876084626E-3
8.713920466E0,4.839390516E-3
8.718664581E0,-1.415204257E-2
8.723408695E0,1.201455295E-2
8.728152810E0,7.144108415E-3
8.732896924E0,-7.176563144E-3
8.737641039E0,-7.112592459E-3
8.742385154E0,-1.654092222E-2
8.747129268E0,-4.534497857E-3
8.751873383E0,7.399879396E-3
8.756617445E0,2.539888024E-3
8.761361560E0,1.493096352E-4
8.766105674E0,-4.594005644E-3
8.770849789E0,9.685270488E-3
8.775593904E0,1.438250393E-2
8.780338018E0,4.774823785E-3
8.785082133E0,2.309590578E-3
8.789826247E0,1.650331914E-2
8.794570362E0,-2.613328397E-3
8.799314476E0,2.186633646E-3
8.804058591E0,-1.440958679E-2
8.808802706E0,1.178764552E-2
8.813546820E0,-1.997798681E-4
8.818290935E0,-2.594850957E-3
8.823035049E0,-9.688176215E-3
8.827779164E0,1.178044826E-2
8.832523279E0,-7.325798273E-3
8.837267393E0,-1.141503453E-4
8.842011508E0,7.065877318E-3
8.846755622E0,-2.480827272E-3
8.851499737E0,9.436443448E-3
8.856243851E0,7.016867399E-3
8.860987966E0,2.360028774E-2
8.865732081E0,2.023369074E-3
8.870476195E0,-3.904625773E-4
8.875220310E0,-7.473677397E-3
8.879964424E0,-2.890452743E-4
8.884708539E0,-2.655826509E-3
8.889452654E0,-2.629525959E-3
8.894196768E0,-2.590417862E-4
8.898940883E0,-7.399857044E-3
8.903684945E0,-1.875981688E-4
8.908429112E0,-1.199002564E-2
8.913173174E0,2.379842103E-3
8.917917341E0,-9.528957307E-3
8.922661404E0,-1.181872934E-2
8.927405518E0,-2.168275416E-3
8.932149633E0,2.571009099E-3
8.936893747E0,-6.910234690E-3
8.941637862E0,2.699345350E-4
8.946381976E0,-4.473917186E-3
8.951126091E0,-6.777338684E-3
8.955870206E0,-1.386406273E-2
8.960614320E0,4.644468427E-4
8.965358435E0,5.238510668E-3
8.970102549E0,-1.919858158E-3
8.974846664E0,-6.617441773E-3
8.979590779E0,-2.322481573E-2
8.984334893E0,-8.818298578E-3
8.989079008E0,3.152258694E-3
8.993823122E0,-1.348002255E-2
8.998567237E0,-1.810975373E-2
9.003311351E0,-8.407108486E-3
9.008055466E0,-8.333586156E-3
9.012799581E0,-2.012462169E-2
9.017543695E0,6.148718297E-3
9.022287810E0,-3.390103579E-3
9.027031924E0,6.161853671E-3
9.031776039E0,-3.349073231E-3
9.036520154E0,-3.288745880E-3
9.041264268E0,6.262369454E-3
9.046008383E0,-1.033955067E-2
9.050752497E0,8.789874613E-3
9.055496612E0,-7.917873561E-3
9.060240726E0,1.643575728E-3
9.064984841E0,1.634046435E-3
9.069728904E0,-7.838688791E-3
9.074473070E0,-5.396544933E-3
9.079217133E0,4.172138870E-3
9.083961247E0,4.169322550E-3
9.088705362E0,1.605918258E-2
9.093449476E0,4.036620259E-3
9.098193591E0,-1.023038477E-2
9.102937706E0,2.305114269E-2
9.107681820E0,1.331493258E-2
9.112425935E0,-1.029387116E-3
9.117170049E0,1.327991486E-3
9.121914164E0,-1.771920174E-2
9.126658279E0,-8.047349751E-3
9.131402393E0,3.860041499E-3
9.136146508E0,1.095044613E-2
9.140890622E0,-9.732693434E-4
9.145634737E0,1.410953701E-3
9.150378851E0,1.566866785E-2
9.155122966E0,-1.053118706E-2
9.159867081E0,-8.038595319E-3
9.164611195E0,-1.031230390E-2
9.169355310E0,1.825192571E-2
9.174099424E0,1.335798949E-2
9.178843539E0,8.476570249E-3
9.183587654E0,-1.082129776E-3
9.188331768E0,-3.470323980E-3
9.193075883E0,-1.058413833E-2
9.197819997E0,-1.286512613E-2
9.202564112E0,1.094634086E-2
9.207308226E0,-1.033619046E-3
9.212052341E0,-5.739055574E-3
9.216796456E0,1.809803396E-2
9.221540570E0,1.340977848E-3
9.226284685E0,2.031654865E-2
9.231028747E0,1.306077838E-2
9.235772862E0,1.147501171E-3
9.240516976E0,1.112900674E-3
9.245261091E0,-1.547437906E-2
9.250005206E0,-8.166573942E-3
9.254749320E0,1.453459263E-3
9.259493435E0,1.568256319E-2
9.264237549E0,1.321117580E-2
9.268981664E0,-2.011509985E-2
9.273725779E0,-1.757065952E-2
9.278469893E0,1.105453074E-2
9.283214008E0,6.192080677E-3
9.287958122E0,-3.318861127E-3
9.292702237E0,1.092200726E-2
9.297446351E0,1.080691069E-2
9.302190466E0,-1.063539833E-2
9.306934581E0,-1.766195893E-2
9.311678695E0,2.757368237E-2
9.316422810E0,1.551191509E-2
9.321166924E0,2.013210952E-2
9.325911039E0,9.572058916E-4
9.330655154E0,8.100047708E-3
9.335399268E0,1.752778143E-2
9.340143383E0,1.023850590E-2
9.344887497E0,7.784225047E-3
9.349631612E0,-6.485745311E-3
9.354375726E0,1.255504787E-2
9.359119841E0,7.707871497E-3
9.363863956E0,-1.136373729E-2
9.368608070E0,-4.146933556E-3
9.373352185E0,-1.735799015E-3
9.378096299E0,6.557255983E-4
9.382840414E0,6.826892495E-4
9.387584529E0,-8.782587945E-3
9.392328643E0,3.158479929E-3
9.397072758E0,7.912293077E-4
9.401816820E0,7.883310318E-4
9.406560987E0,5.531445146E-3
9.411305049E0,-1.601584256E-3
9.416049164E0,-3.985680640E-3
9.420793279E0,7.887855172E-3
9.425537393E0,1.491669565E-2
9.430281508E0,-4.215225577E-3
9.435025622E0,7.716730237E-3
9.439769737E0,-1.604445279E-2
9.444513851E0,-8.816421032E-3
9.449257966E0,-1.592352986E-3
9.454002081E0,7.975026965E-4
9.458746195E0,-1.101336628E-2
9.463490310E0,-8.516758680E-3
9.468234424E0,-1.295179129E-3
9.472978539E0,-1.786237955E-2
9.477722654E0,3.674603999E-3
9.482466768E0,-5.843855441E-3
9.487210883E0,1.084743440E-2
9.491954997E0,6.043456495E-3
9.496699112E0,3.651939332E-3
9.501443226E0,8.371189237E-3
9.506187341E0,-1.073443145E-2
9.510931456E0,1.251854002E-3
9.515675570E0,1.305325329E-2
9.520419685E0,1.084476709E-3
9.525163799E0,3.452025354E-3
9.529907914E0,3.398470581E-3
9.534652029E0,1.000970602E-3
9.539396143E0,9.963288903E-4
9.544140258E0,-8.584342897E-3
9.548884372E0,8.101537824E-3
9.553628487E0,1.275476068E-2
9.558372601E0,7.595047355E-4
9.563116716E0,1.024839282E-2
9.567860831E0,-8.788362145E-3
9.572604893E0,7.926993072E-3
9.577349008E0,1.970103383E-2
9.582093122E0,-8.934028447E-3
9.586837237E0,-1.597452909E-2
9.591581351E0,-6.345942616E-3
9.596325466E0,-1.100616902E-2
9.601069581E0,-3.735125065E-3
9.605813695E0,1.045472920E-3
9.610557810E0,3.413572907E-3
9.615301924E0,-6.130725145E-3
9.620046039E0,-1.079345495E-2
9.624790154E0,1.308599114E-2
9.629534268E0,-1.199670136E-3
9.634278383E0,1.187145710E-3
9.639022497E0,5.897976458E-3
9.643766612E0,3.479883075E-3
9.648510726E0,1.054520160E-2
9.653254841E0,8.059874177E-3
9.657998956E0,1.508703828E-2
9.662743070E0,-6.391167641E-3
9.667487185E0,1.027595997E-2
9.672231299E0,5.476504564E-3
9.676975414E0,1.729898155E-2
9.681719529E0,-1.824542880E-3
9.686463643E0,1.957855374E-2
9.691207758E0,1.230067760E-2
9.695951872E0,2.710580826E-3
9.700695987E0,3.190413117E-4
9.705440101E0,-4.453934729E-3
9.710184216E0,7.479771972E-3
9.714928331E0,-1.393456012E-2
9.719672445E0,-1.950100064E-3
9.724416560E0,4.427358508E-4
9.729160674E0,-4.331283271E-3
9.733904789E0,1.709269732E-2
9.738648904E0,-4.430003464E-3
9.743393018E0,-2.044990659E-3
9.748137133E0,1.458592713E-2
9.752881247E0,-9.288765490E-3
9.757625362E0,-2.117499709E-3
9.762369476E0,2.769678831E-4
9.767113539E0,2.651475370E-3
9.771857654E0,9.751722217E-3
9.776601768E0,1.207551360E-2
9.781345883E0,-4.631347954E-3
9.786089997E0,3.340554982E-2
9.790834112E0,2.123796940E-2
9.795578226E0,1.154536754E-2
9.800322341E0,1.385398209E-2
9.805066456E0,-9.958103299E-3
9.809810570E0,2.049736679E-3
9.814554685E0,-2.800226212E-4
9.819298799E0,-7.420890033E-3
9.824042914E0,-2.082139254E-4
9.828787029E0,-7.321424782E-3
9.833531143E0,-1.197399944E-2
9.838275258E0,7.169507444E-3
9.843019372E0,2.135100216E-2
9.847763487E0,-7.269091904E-3
9.852507601E0,-1.195034385E-2
9.857251716E0,-7.129073143E-3
9.861995831E0,-1.418484747E-2
9.866739945E0,9.694367647E-3
9.871484060E0,1.913729310E-2
9.876228174E0,-1.303851604E-6
9.880972289E0,-7.200539112E-3
9.885716404E0,-1.659988612E-2
9.890460518E0,2.553924918E-3
9.895204633E0,4.909455776E-3
9.899948747E0,7.216870785E-3
9.904692862E0,1.354515553E-5
9.909436976E0,7.164016366E-3
9.914181091E0,4.541128874E-5
9.918925206E0,-7.069915533E-3
9.923669320E0,9.574852884E-3
9.928413435E0,9.527236223E-3
9.933157549E0,1.698732376E-5
9.937901664E0,4.794776440E-3
9.942645779E0,1.422202587E-2
9.947389893E0,-7.248260081E-3
9.952134008E0,1.420049369E-2
9.956878122E0,-1.227110624E-4
9.961622237E0,2.283148468E-3
9.966366351E0,6.985314190E-3
9.971110466E0,4.586406052E-3
9.975854581E0,4.552356899E-3
9.980598695E0,-5.029678345E-3
9.985342810E0,-7.356718183E-3
9.990086872E0,-4.918597639E-3
9.994830987E0,-1.202058047E-2
9.999575101E0,1.418546587E-2
1.000431922E1,1.164179295E-2
1.000906333E1,1.389333606E-2
1.001380745E1,4.346460104E-3
1.001855156E1,-1.232448220E-2
1.002329567E1,-3.814473748E-4
1.002803979E1,2.026796341E-3
1.003278390E1,2.013608813E-3
1.003752802E1,1.380842924E-2
1.004227213E1,-1.717843860E-2
1.004701625E1,-5.195654929E-3
1.005176036E1,-1.226730645E-2
1.005650448E1,-2.162441611E-2
1.006124859E1,-5.584210157E-5
1.006599271E1,1.172795892E-2
1.007073682E1,1.632318646E-2
1.007548094E1,1.378972083E-2
1.008022505E1,1.814343035E-3
1.008496916E1,1.132269949E-2
1.008971328E1,4.112921655E-3
1.009445739E1,-1.490070671E-2
1.009920151E1,-1.946163923E-2
1.010394562E1,-7.459357381E-3
1.010868974E1,-9.766146541E-3
1.011343385E1,1.407625526E-2
1.011817797E1,4.442632198E-3
1.012292208E1,6.753936410E-3
1.012766620E1,1.899093390E-3
1.013241031E1,-1.472321153E-2
1.013715442E1,-9.850591421E-3
1.014189854E1,1.868177205E-2
1.014664265E1,2.087488770E-2
1.015138677E1,-1.248700172E-2
1.015613088E1,4.258945584E-3
1.016087500E1,-2.834513783E-3
1.016561911E1,-9.869337082E-3
1.017036323E1,-9.783394635E-3
1.017510734E1,1.643203944E-2
1.017985146E1,1.152525097E-2
1.018459557E1,1.380625367E-2
1.018933968E1,4.203610122E-3
1.019408380E1,1.129139960E-2
1.019882786E1,8.885100484E-3
1.020357203E1,1.118764281E-2
1.020831609E1,6.352581084E-3
1.021306021E1,1.579535007E-2
1.021780437E1,6.204135716E-3
1.022254844E1,-3.335148096E-3
1.022729255E1,-8.020922542E-3
1.023203666E1,-7.921889424E-3
1.023678078E1,4.012458026E-3
1.024152489E1,-7.065236568E-4
1.024626901E1,8.795052767E-3
1.025101312E1,8.697435260E-3
1.025575724E1,3.826364875E-3
1.026050135E1,1.094531268E-2
1.026524547E1,3.767408431E-3
1.026998958E1,-5.780071020E-3
1.027473370E1,6.164684892E-3
1.027947781E1,1.342996955E-3
1.028422192E1,-1.052868366E-2
1.028896604E1,1.089090109E-2
1.029371015E1,1.552181691E-2
1.029845427E1,1.070690900E-2
1.030319838E1,-1.271031797E-3
1.030794250E1,-1.549404114E-2
1.031268661E1,1.248955727E-3
1.031743073E1,-5.875937641E-3
1.032217484E1,3.611974418E-3
1.032691896E1,1.241423190E-3
1.033166307E1,5.924485624E-3
1.033640718E1,1.065307856E-2
1.034115130E1,3.478311002E-3
1.034589541E1,-1.315691322E-2
1.035063953E1,1.068501920E-2
1.035538364E1,8.254818618E-3
1.036012776E1,-8.420214057E-3
1.036487187E1,1.301005483E-2
1.036961599E1,-1.303456724E-3
1.037436010E1,-8.436277509E-3
1.037910422E1,1.531026512E-2
1.038384833E1,1.275721192E-2
1.038859244E1,3.191560507E-3
1.039333656E1,-1.577086747E-3
1.039808067E1,7.850900292E-4
1.040282479E1,-8.708819747E-3
1.040756890E1,8.874759078E-4
1.041231302E1,-1.098017395E-2
1.041705713E1,5.725666881E-3
1.042180125E1,8.054308593E-3
1.042654536E1,-1.500867307E-3
1.043128942E1,8.602067828E-4
1.043603359E1,3.229849041E-3
1.044077771E1,7.980898023E-3
1.044552177E1,-6.290949881E-3
1.045026588E1,-1.489058137E-3
1.045501000E1,-3.845833242E-3
1.045975416E1,-1.408942044E-3
1.046449823E1,-1.557359099E-2
1.046924234E1,1.063357294E-2
1.047398646E1,8.175782859E-3
1.047873057E1,-6.154201925E-3
1.048347469E1,1.760134846E-2
1.048821880E1,1.033925265E-2
1.049296291E1,-6.381638348E-3
1.049770703E1,7.912300527E-3
1.050245114E1,5.534149706E-3
1.050719526E1,-3.999553621E-3
1.051193937E1,-8.708283305E-3
1.051668349E1,7.922112942E-3
1.052142760E1,1.497868448E-2
1.052617172E1,1.728694886E-2
1.053091583E1,-6.638512015E-3
1.053565994E1,5.228862166E-3
1.054040406E1,5.217246711E-3
1.054514817E1,9.951733053E-3
1.054989229E1,5.154751241E-3
1.055463640E1,-9.122021496E-3
1.055938052E1,-9.127072990E-3
1.056412463E1,-1.853908598E-2
1.056886875E1,1.483970881E-2
1.057361286E1,7.601097226E-3
1.057835698E1,9.886309505E-3
1.058310109E1,-2.028524876E-3
1.058784521E1,-4.352085292E-3
1.059258932E1,1.232654601E-2
1.059733344E1,-6.755530834E-3
1.060207755E1,5.169108510E-3
1.060682166E1,5.129970610E-3
1.061156578E1,9.865179658E-3
1.061630989E1,-1.868768781E-2
1.062105401E1,-2.327354997E-2
1.062579812E1,1.251779497E-2
1.063054224E1,-1.371231675E-2
1.063528635E1,-1.729458570E-3
1.064003047E1,6.617754698E-4
1.064477458E1,-6.486713886E-3
1.064951870E1,1.018168032E-2
1.065426281E1,5.327209830E-3
1.065900692E1,-4.317559302E-3
1.066375104E1,7.587000728E-3
1.066849515E1,-1.142709702E-2
1.067323927E1,5.282007158E-3
1.067798338E1,1.710610837E-2
1.068272745E1,-1.987539232E-3
1.068747161E1,-1.995533705E-3
1.069221573E1,-4.376351833E-3
1.069695984E1,4.375949502E-4
1.070170396E1,-1.906745136E-3
1.070644807E1,-4.259809852E-3
1.071119213E1,-1.819238067E-3
1.071593625E1,-1.800149679E-3
1.072068036E1,1.245583594E-2
1.072542448E1,1.001134515E-2
1.073016859E1,5.186088383E-3
1.073491271E1,-1.623738557E-2
1.073965682E1,2.884678543E-3
1.074440094E1,-6.597988307E-3
1.074914505E1,6.078258157E-4
1.075388916E1,5.786642432E-4
1.075863328E1,1.481530070E-2
1.076337739E1,-1.849656552E-2
1.076812151E1,1.250898093E-2
1.077286562E1,1.240868121E-2
1.077760974E1,2.789184451E-3
1.078235385E1,-1.947395504E-3
1.078709797E1,5.191408098E-3
1.079184208E1,-4.339441657E-3
1.079658620E1,-1.141799241E-2
1.080133031E1,-1.131867617E-2
1.080607442E1,-8.847534657E-3
1.081081854E1,-2.066278458E-2
1.081556265E1,-1.560106874E-3
1.082030677E1,-3.916062415E-3
1.082505088E1,3.295660019E-3
1.082979500E1,-1.445375383E-3
1.083453911E1,-6.147146225E-3
1.083928323E1,1.026667655E-3
1.084402734E1,-1.561640203E-2
1.084877146E1,8.246257901E-3
1.085351557E1,-1.281797886E-3
1.085825968E1,-5.984939635E-3
1.086300380E1,-1.157112420E-3
1.086774791E1,-2.247123420E-2
1.087249203E1,-8.042745292E-3
1.087723614E1,8.581869304E-3
1.088198026E1,2.037893236E-2
1.088672437E1,5.975738168E-3
1.089146849E1,-2.251645923E-2
1.089621260E1,-1.046048105E-2
1.090095672E1,6.212294102E-3
1.090570083E1,-1.999423653E-2
1.091044494E1,1.102402806E-2
1.091518906E1,-1.516561210E-2
1.091993317E1,-2.689971030E-2
1.092467729E1,6.548732519E-3
1.092942140E1,-5.309559405E-3
1.093416552E1,4.229903221E-3
1.093890963E1,-5.293175578E-3
1.094365375E1,2.085586637E-2
1.094839786E1,1.591197401E-2
1.095314198E1,1.335367560E-2
1.095788609E1,1.796430349E-2
1.096263021E1,-3.537170589E-3
1.096737432E1,-1.302331686E-2
1.097211844E1,-1.528397202E-2
1.097686255E1,6.259538233E-3
1.098160666E1,1.465789974E-3
1.098635078E1,1.329342276E-2
1.099109489E1,1.293681562E-3
1.099583901E1,1.315087080E-3
1.100058312E1,1.336313784E-3
1.100532718E1,1.329109073E-3
1.101007135E1,6.067715585E-3
1.101481541E1,6.077587605E-3
1.101955958E1,1.313373446E-3
1.102430364E1,1.306124032E-3
1.102904776E1,-1.074180007E-3
1.103379187E1,-5.750559270E-3
1.103853599E1,1.448199153E-3
1.104328010E1,3.812707961E-3
1.104802422E1,-8.080013096E-3
1.105276833E1,-5.635865033E-3
1.105751244E1,-1.273234934E-2
1.106225656E1,-7.877022028E-3
1.106700067E1,-7.455497980E-4
1.107174479E1,-1.260006428E-2
1.107648890E1,-5.400508642E-3
1.108123302E1,-6.060376763E-4
1.108597713E1,1.747325063E-3
1.109072125E1,1.122846454E-2
1.109546536E1,3.992155194E-3
1.110020948E1,-5.556724966E-3
1.110495359E1,-5.506247282E-3
1.110969771E1,2.067352831E-2
1.111444182E1,1.578629017E-3
1.111918594E1,-1.501252502E-2
1.112393005E1,1.356331259E-2
1.112867416E1,6.307303905E-3
1.113341828E1,8.631564677E-3
1.113816239E1,-5.701743066E-3
1.114290651E1,6.242357194E-3
1.114765062E1,2.277618647E-2
1.115239474E1,8.324764669E-3
1.115713885E1,-1.204185188E-3
1.116188297E1,3.527283669E-3
1.116662708E1,-1.545298100E-2
1.117137120E1,-5.856998265E-3
1.117611531E1,-3.403358161E-3
1.118085942E1,-8.117064834E-3
1.118560354E1,-5.644358695E-3
1.119034765E1,1.104503870E-2
1.119509177E1,6.267428398E-3
1.119983588E1,-1.039128006E-2
1.120458000E1,-7.812008262E-4
1.120932411E1,-1.738094538E-2
1.121406823E1,-1.957703382E-2
1.121881234E1,-1.943822205E-2
1.122355646E1,1.397654414E-2
1.122830057E1,-3.165304661E-4
1.123304469E1,-1.214588434E-2
1.123778880E1,-9.667143226E-3
1.124253291E1,4.654400051E-3
1.124727703E1,-1.829639077E-4
1.125202114E1,-2.550631762E-3
1.125676526E1,-9.644098580E-3
1.126150937E1,1.414053142E-2
1.126625349E1,9.280629456E-3
1.127099760E1,-1.212047040E-2
1.127574172E1,4.594638944E-3
1.128048583E1,2.215661108E-3
1.128522995E1,2.121195942E-2
1.128997406E1,-5.063049495E-3
1.129471817E1,1.162126660E-2
1.129946229E1,-2.737432718E-3
1.130420640E1,2.006828785E-3
1.130895052E1,-1.458789408E-2
1.131369463E1,4.520654678E-3
1.131843870E1,-2.585947514E-4
1.132318281E1,-2.597615123E-3
1.132792692E1,2.201750875E-3
1.133267104E1,-2.422928810E-4
1.133741521E1,-2.365782857E-4
1.134215927E1,2.170220017E-3
1.134690338E1,1.876600087E-2
1.135164750E1,-7.488392293E-3
1.135639161E1,1.396212727E-2
1.136113573E1,1.984834671E-3
1.136587984E1,-9.892195463E-3
1.137062396E1,-7.432945073E-3
1.137536807E1,-5.050696433E-3
1.138011219E1,-5.004674196E-3
1.138485630E1,-9.733051062E-3
1.138960041E1,-1.916802675E-2
1.139434453E1,-4.795305431E-3
1.139908864E1,1.188701391E-2
1.140383276E1,1.181991398E-2
1.140857687E1,-2.511471510E-3
1.141332099E1,-9.605027735E-3
1.141806510E1,7.088892162E-3
1.142280922E1,-7.175512612E-3
1.142755333E1,1.901818067E-2
1.143229745E1,-1.759380102E-4
1.143704156E1,-4.916541278E-3
1.144178567E1,-1.436316967E-2
1.144652979E1,-2.403162420E-3
1.145127390E1,1.660409570E-2
1.145601802E1,1.175214350E-2
1.146076213E1,-1.497566700E-4
1.146550625E1,1.412072778E-2
1.147025036E1,-9.693585336E-3
1.147499448E1,1.174683869E-2
1.147973859E1,4.506446421E-3
1.148448271E1,9.190335870E-3
1.148922682E1,-5.119606853E-3
1.149397094E1,-1.456500590E-2
1.149871505E1,-7.320813835E-3
1.150345916E1,6.981417537E-3
1.150820328E1,-7.310345769E-3
1.151294739E1,2.189300954E-3
1.151769151E1,4.519842565E-3
1.152243562E1,-5.005642772E-3
1.152717974E1,-2.587109804E-3
1.153192385E1,-1.202466339E-2
1.153666797E1,1.418071240E-2
1.154141208E1,-1.425519586E-4
1.154615620E1,-1.200208068E-2
1.155090031E1,4.739820957E-3
1.155564442E1,2.359636128E-3
1.156038854E1,2.343669534E-3
1.156513265E1,2.299346030E-3
1.156987677E1,-4.834532738E-3
1.157462088E1,-7.163196802E-3
1.157936500E1,-1.896446198E-2
1.158410911E1,-1.880224794E-2
1.158885323E1,5.058936775E-3
1.159359734E1,4.992216825E-3
1.159834146E1,2.525404096E-3
1.160308557E1,4.880927503E-3
1.160782968E1,4.872202873E-3
1.161257380E1,2.462431788E-3
1.161731791E1,4.790216684E-3
1.162206203E1,-1.191245764E-2
1.162680614E1,-4.718631506E-3
1.163155026E1,2.470821142E-3
1.163629437E1,7.171653211E-3
1.164103849E1,1.183332503E-2
1.164578260E1,-1.540109515E-4
1.165052672E1,2.195827663E-3
1.165527083E1,-1.208409667E-2
1.166001494E1,4.630714655E-3
1.166475906E1,2.194926143E-3
1.166950317E1,-7.282473147E-3
1.167424729E1,-7.189832628E-3
1.167899140E1,2.365551889E-3
1.168373552E1,-2.395994961E-3
1.168847963E1,-2.372324467E-3
1.169322375E1,2.397380769E-3
1.169796786E1,9.499981999E-3
1.170271192E1,7.051393390E-3
1.170745604E1,4.623450339E-3
1.171220015E1,2.187728882E-3
1.171694427E1,1.163646579E-2
1.172168838E1,9.142301977E-3
1.172643250E1,-4.217028618E-4
1.173117661E1,4.359520972E-3
1.173592073E1,1.384691149E-2
1.174066484E1,-4.742816091E-4
1.174540896E1,-9.957931936E-3
1.175015307E1,-1.221587509E-2
1.175489718E1,6.900697947E-3
1.175964130E1,2.101607621E-3
1.176438541E1,4.460908473E-3
1.176912953E1,9.201459587E-3
1.177387364E1,-1.219920814E-2
1.177861776E1,-1.209338009E-2
1.178336187E1,-9.615786374E-3
1.178810599E1,-4.814445972E-3
1.179285010E1,1.895819604E-2
1.179759422E1,-1.450050622E-2
1.180233833E1,3.308191150E-2
1.180708244E1,1.619976014E-2
1.181182656E1,-1.958106458E-2
1.181657067E1,-4.026368260E-4
1.182131479E1,-2.796970308E-3
1.182605890E1,-3.127281368E-2
1.183080302E1,-1.612752676E-4
1.183554713E1,-7.331393659E-3
1.184029125E1,1.168796420E-2
1.184503536E1,6.905235350E-3
1.184977948E1,-2.695940435E-3
1.185452359E1,4.420846701E-3
1.185926771E1,-2.730697393E-3
1.186401182E1,-9.822420776E-3
1.186875594E1,-4.962608218E-3
1.187350005E1,2.201333642E-3
1.187824416E1,2.214707434E-3
1.188298828E1,-4.890680313E-3
1.188773239E1,2.301149070E-3
1.189247651E1,-9.606994689E-3
1.189722062E1,-2.460867167E-3
1.190196474E1,-7.182419300E-3
1.190670885E1,-1.898305118E-2
1.191145297E1,-9.357891977E-3
1.191619708E1,7.390700281E-3
1.192094120E1,1.861453056E-4
1.192568531E1,-1.644992083E-2
1.193042942E1,9.792804718E-3
1.193517354E1,7.342010736E-3
1.193991765E1,-2.118982375E-2
1.194466177E1,9.837932885E-3
1.194940588E1,9.759418666E-3
1.195415000E1,-4.555739462E-3
1.195889411E1,-1.400537044E-2
1.196363823E1,-6.765842438E-3
1.196838234E1,1.939570904E-2
1.197312646E1,-4.490815103E-3
1.197787057E1,7.443197072E-3
1.198261469E1,1.213039458E-2
1.198735880E1,1.432111859E-2
1.199210291E1,1.420547068E-2
1.199684703E1,-2.547644079E-3
1.200159114E1,-7.296971977E-3
1.200633526E1,9.377703071E-3
1.201107937E1,6.902344525E-3
1.201582349E1,6.820499897E-3
1.202056760E1,-1.458881795E-2
1.202531172E1,1.635567099E-2
1.203005583E1,6.760016084E-3
1.203479995E1,-2.755418420E-3
1.203954401E1,-5.129419267E-3
1.204428817E1,2.064161003E-3
1.204903229E1,-5.096010864E-3
1.205377640E1,-7.507488132E-3
1.205852052E1,1.866023242E-2
1.206326463E1,1.373440027E-2
1.206800875E1,6.448961794E-3
1.207275281E1,-1.258390397E-2
1.207749692E1,1.125347614E-2
1.208224104E1,-1.731073111E-2
1.208698515E1,4.193164408E-3
1.209172927E1,-5.838349462E-4
1.209647338E1,1.366201788E-2
1.210121750E1,-5.430959165E-3
1.210596161E1,-1.487376541E-2
1.211070573E1,8.982703090E-3
1.211544984E1,8.939787745E-3
1.212019396E1,-5.368068814E-3
1.212493807E1,-7.663801312E-3
1.212968218E1,1.895770431E-3
1.213442630E1,-9.980514646E-3
1.213917041E1,-5.119390786E-3
1.214391453E1,1.153761894E-2
1.214865864E1,6.699874997E-3
1.215340276E1,-9.989738464E-3
1.215814687E1,-4.107803106E-4
1.216289099E1,-5.148954690E-3
1.216763510E1,-1.456586272E-2
1.217237922E1,-1.203965396E-2
1.217712333E1,-7.121264935E-5
1.218186744E1,-3.843754530E-5
1.218661156E1,-4.752174020E-3
1.219135567E1,2.438507974E-3
1.219609979E1,2.140565217E-2
1.220084390E1,-2.497859299E-3
1.220558802E1,-2.444855869E-3
1.221033213E1,7.127724588E-3
1.221507625E1,7.043756545E-3
1.221982036E1,-7.276065648E-3
1.222456448E1,-9.308755398E-5
1.222930859E1,9.402908385E-3
1.223405271E1,-7.253192365E-3
1.223879682E1,-1.433547586E-2
1.224354094E1,-1.895809174E-2
1.224828505E1,-2.129241824E-3
1.225302916E1,-1.868972927E-2
1.225777328E1,2.853915095E-3
1.226251739E1,4.329308867E-4
1.226726151E1,9.896285832E-3
1.227200562E1,2.979636192E-4
1.227674974E1,-6.875753403E-3
1.228149385E1,-2.040512860E-3
1.228623797E1,5.155570805E-3
1.229098208E1,-4.374988377E-3
1.229572620E1,-2.094429731E-2
1.230047031E1,5.621016026E-4
1.230521442E1,7.651723921E-3
1.230995854E1,9.936518967E-3
1.231470265E1,-1.144154370E-2
1.231944677E1,2.895034850E-3
1.232419088E1,2.874843776E-3
1.232893500E1,-9.009838104E-3
1.233367911E1,1.008001715E-2
1.233842323E1,5.226165056E-3
1.234316734E1,4.130080342E-4
1.234791146E1,2.758361399E-3
1.235265557E1,3.664270043E-4
1.235739968E1,-6.751343608E-3
1.236214380E1,5.144998431E-3
1.236688791E1,2.732947469E-3
1.237163203E1,5.058489740E-3
1.237637614E1,1.208217442E-2
1.238112026E1,7.267661393E-3
1.238586437E1,-6.969757378E-3
1.239060849E1,2.106651664E-4
1.239535260E1,2.128407359E-4
1.240009672E1,1.682541519E-2
1.240484083E1,-4.666566849E-3
1.240958494E1,-2.222374082E-3
1.241432906E1,4.946731031E-3
1.241907312E1,-6.954967976E-3
1.242381729E1,-2.147555351E-3
1.242856140E1,-6.871961057E-3
1.243330552E1,-2.093493938E-3
1.243804958E1,2.645395696E-3
1.244279375E1,-1.163874567E-2
1.244753786E1,5.072593689E-3
1.245228192E1,2.885013819E-4
1.245702604E1,2.634420991E-3
1.246177015E1,2.150237560E-4
1.246651427E1,-2.212233841E-3
1.247125838E1,-2.189621329E-3
1.247600250E1,4.979446530E-3
1.248074661E1,1.678764820E-4
1.248549073E1,1.991316676E-4
1.249023484E1,-2.171725035E-3
1.249497896E1,4.968471825E-3
1.249972312E1,-2.244390547E-3
1.250446719E1,7.241278887E-3
1.250921130E1,-9.397059679E-3
1.251395541E1,-4.597060382E-3
1.251869953E1,-4.554823041E-3
1.252344364E1,9.723886847E-3
1.252818776E1,4.872761667E-3
1.253293187E1,-2.126585692E-2
1.253767599E1,-4.446282983E-3
1.254242010E1,-2.576147765E-2
1.254716422E1,2.959735692E-3
1.255190833E1,3.138558567E-2
1.255665245E1,2.596631646E-3
1.256139656E1,-1.165860891E-2
1.256614067E1,1.454394311E-2
1.257088479E1,7.308021188E-3
1.257562890E1,-2.211980522E-3
1.258037302E1,7.330633700E-3
1.258511713E1,4.872582853E-3
1.258986125E1,2.462796867E-3
1.259460536E1,-1.181934774E-2
1.259934948E1,7.265895605E-3
1.260409359E1,4.864640534E-3
1.260883771E1,2.455160022E-3
1.261358182E1,9.246170521E-6
1.261832594E1,7.074989378E-3
1.262307005E1,-2.500049770E-3
1.262781416E1,-4.848405719E-3
1.263255828E1,-4.832796752E-3
1.263730239E1,2.134136111E-2
1.264204651E1,6.958395243E-3
1.264679062E1,2.158120275E-3
1.265153474E1,2.109886706E-2
1.265627885E1,-9.948752820E-3
1.266102297E1,-1.223549992E-2
1.266576708E1,2.111876011E-2
1.267051120E1,1.907140017E-3
1.267525531E1,-2.879083157E-3
1.267999942E1,1.922853291E-3
1.268474354E1,-5.236379802E-3
1.268948765E1,1.958087087E-3
1.269423177E1,-1.700935513E-2
1.269897588E1,9.238034487E-3
1.270372000E1,1.625537872E-2
1.270846411E1,-5.260348320E-3
1.271320823E1,-4.950687289E-4
1.271795234E1,2.086868882E-2
1.272269646E1,8.806049824E-3
1.272744057E1,-3.155827522E-3
1.273218468E1,-7.529482245E-4
1.273692880E1,-1.026277244E-2
1.274167291E1,-5.484059453E-3
1.274641703E1,-3.061547875E-3
1.275116114E1,6.459660828E-3
1.275590526E1,6.409525871E-3
1.276064937E1,-7.588267326E-4
1.276539349E1,-7.895231247E-3
1.277013760E1,8.756659925E-3
1.277488172E1,1.346187294E-2
1.277962583E1,-8.554160595E-4
1.278436995E1,-3.217242658E-3
1.278911406E1,-5.559615791E-3
1.279385817E1,-1.974640787E-2
1.279860229E1,-5.383566022E-4
1.280334635E1,4.216298461E-3
1.280809052E1,-5.889162421E-4
1.281283463E1,-2.925194800E-3
1.281757870E1,-2.868644893E-3
1.282232281E1,-4.394277930E-4
1.282706692E1,-9.923607111E-3
1.283181109E1,-1.220986247E-2
1.283655515E1,1.636993885E-2
1.284129932E1,-3.164559603E-4
1.284604338E1,-7.456794381E-3
1.285078750E1,-9.792104363E-3
1.285553161E1,6.874874234E-3
1.286027573E1,-1.690731198E-2
1.286501984E1,2.120339870E-2
1.286976396E1,4.420451820E-3
1.287450807E1,4.387311637E-3
1.287925218E1,4.382699728E-3
1.288399630E1,-2.740517259E-3
1.288874041E1,9.178914130E-3
1.289348453E1,4.388839006E-3
1.289822864E1,-3.897920251E-4
1.290297276E1,9.080901742E-3
1.290771687E1,-7.601015270E-3
1.291246099E1,-7.533982396E-3
1.291720510E1,1.394541562E-2
1.292194922E1,1.146025211E-2
1.292669333E1,6.622910500E-3
1.293143744E1,6.599895656E-3
1.293618156E1,1.802839339E-3
1.294092567E1,2.320442349E-2
1.294566979E1,4.031449556E-3
1.295041390E1,-3.145344555E-3
1.295515802E1,1.659065485E-3
1.295990213E1,-6.954669952E-4
1.296464625E1,8.834026754E-3
1.296939036E1,-7.274225354E-4
1.297413448E1,8.773855865E-3
1.297887859E1,3.958903253E-3
1.298362271E1,-3.189034760E-3
1.298836682E1,-8.143633604E-4
1.299311094E1,-7.893808186E-3
1.299785505E1,8.786074817E-3
1.300259916E1,2.529870719E-2
1.300734328E1,8.510142565E-3
1.301208739E1,3.725886345E-3
1.301683151E1,-9.907260537E-4
1.302157562E1,-3.379918635E-3
1.302631974E1,1.369453967E-3
1.303106385E1,-9.824186563E-4
1.303580797E1,1.374565065E-3
1.304055208E1,-1.998820156E-2
1.304529620E1,-7.982000709E-3
1.305004031E1,1.581726968E-2
1.305478442E1,1.452095807E-3
1.305952854E1,-1.516648382E-2
1.306427265E1,-3.171756864E-3
1.306901677E1,-7.404983044E-4
1.307376088E1,-1.253855228E-2
1.307850500E1,-1.954901963E-2
1.308324911E1,-7.461257279E-3
1.308799323E1,-2.634995431E-2
1.309273734E1,2.348385751E-3
1.309748146E1,-9.531907737E-3
1.310222557E1,-9.476564825E-3
1.310696969E1,-1.413918287E-2
1.311171380E1,-1.881994307E-2
1.311645791E1,9.786918759E-3
1.312120203E1,-2.183616161E-3
1.312594614E1,9.702697396E-3
1.313069026E1,4.879765213E-3
1.313543437E1,2.441897988E-3
1.314017849E1,-1.181182265E-2
1.314492260E1,-4.590801895E-3
1.314966672E1,-1.409688592E-2
1.315441083E1,-4.512444139E-3
1.315915489E1,7.364772260E-3
1.316389906E1,2.590067685E-3
1.316864317E1,9.691059589E-3
1.317338724E1,1.910576224E-2
1.317813135E1,-2.853565663E-2
1.318287547E1,9.671948850E-3
1.318761958E1,-2.269357443E-3
1.319236370E1,-2.303026617E-3
1.319710786E1,1.904801279E-2
1.320185192E1,-2.434238791E-3
1.320659604E1,-6.585568190E-5
1.321134015E1,2.283491194E-3
1.321608427E1,-2.477377653E-3
1.322082838E1,-2.453036606E-3
1.322557250E1,-1.666643471E-2
1.323031661E1,7.204972208E-3
1.323506073E1,1.189439744E-2
1.323980484E1,1.417209208E-2
1.324454896E1,9.312160313E-3
1.324929307E1,2.148099244E-3
1.325403719E1,-1.684846729E-2
1.325878130E1,-1.502186060E-4
1.326352541E1,-1.672673225E-2
1.326826953E1,-1.186589897E-2
1.327301364E1,7.219970226E-3
1.327775776E1,7.191985846E-3
1.328250187E1,2.418480814E-3
1.328724599E1,-9.433910251E-3
1.329199010E1,-6.950221956E-3
1.329673422E1,-2.170868218E-3
1.330147833E1,7.286168635E-3
1.330622245E1,2.483867109E-3
1.331096656E1,-7.052682340E-3
1.331571067E1,-6.990209222E-3
1.332045479E1,1.680102944E-2
1.332519890E1,1.429159939E-2
1.332994302E1,-8.933246136E-5
1.333468713E1,1.177975535E-2
1.333943125E1,1.405840367E-2
1.334417536E1,1.162903756E-2
1.334891948E1,6.762750447E-3
1.335366359E1,9.055197239E-3
1.335840771E1,-1.231600344E-2
1.336315182E1,-2.689652145E-3
1.336789594E1,-2.691559494E-3
1.337264005E1,-2.167627960E-2
1.337738416E1,1.170062274E-2
1.338212828E1,9.262420237E-3
1.338687239E1,-9.794123471E-3
1.339161651E1,6.844863296E-3
1.339636062E1,2.046234906E-3
1.340110474E1,-5.085296929E-3
1.340584885E1,-1.215763390E-2
1.341059297E1,1.170469075E-2
1.341533708E1,9.238436818E-3
1.342008120E1,-5.071908236E-3
1.342482531E1,1.630175114E-2
1.342956942E1,-4.403367639E-4
1.343431354E1,-2.805627882E-3
1.343905765E1,6.713449955E-3
1.344380177E1,1.915208995E-3
1.344854588E1,-9.989731014E-3
1.345329000E1,-1.464831084E-2
1.345803411E1,6.861634552E-3
1.346277823E1,1.867257059E-2
1.346752234E1,1.140177250E-2
1.347226646E1,8.965820074E-3
1.347701057E1,-1.003152877E-2
1.348175468E1,4.321783781E-3
1.348649880E1,-4.565268755E-4
1.349124291E1,9.014002979E-3
1.349598698E1,4.225060344E-3
1.350073114E1,-5.237236619E-4
1.350547521E1,6.574727595E-3
1.351021932E1,1.806363463E-3
1.351496344E1,-5.498677492E-4
1.351970760E1,4.204161465E-3
1.352445166E1,6.545938551E-3
1.352919578E1,-5.950704217E-4
1.353393989E1,6.561182439E-3
1.353868401E1,-7.726378739E-3
1.354342812E1,-2.940781415E-3
1.354817224E1,1.832962036E-3
1.355291635E1,-2.953112125E-3
1.355766047E1,-2.952829003E-3
1.356240458E1,4.194125533E-3
1.356714870E1,-1.010220498E-2
1.357189281E1,1.878343523E-3
1.357663692E1,1.894637942E-3
1.358138104E1,1.131803542E-2
1.358612515E1,-3.009170294E-3
1.359086927E1,1.837578416E-2
1.359561338E1,6.333678961E-3
1.360035750E1,3.854975104E-3
1.360510161E1,1.425661147E-3
1.360984573E1,-1.011908054E-3
1.361458984E1,-1.051980257E-2
1.361933396E1,1.435980201E-3
1.362407807E1,-9.169206023E-4
1.362882218E1,-3.221504390E-3
1.363356630E1,1.583285630E-3
1.363831041E1,8.721150458E-3
1.364305453E1,6.251260638E-3
1.364779864E1,-9.435564280E-4
1.365254276E1,3.813765943E-3
1.365728687E1,1.087655127E-2
1.366203099E1,3.670968115E-3
1.366677510E1,-5.847446620E-3
1.367151922E1,-9.922832251E-4
1.367626333E1,-1.993490010E-2
1.368100744E1,-1.267444342E-2
1.368575156E1,1.353657991E-2
1.369049567E1,1.585710049E-2
1.369523979E1,1.570064574E-2
1.369998390E1,8.426845074E-3
1.370472802E1,1.079016924E-2
1.370947213E1,3.557048738E-3
1.371421625E1,-1.542370021E-2
1.371896036E1,1.083847880E-2
1.372370448E1,-5.829833448E-3
1.372844859E1,1.088935882E-2
1.373319271E1,-3.406494856E-3
1.373793682E1,-8.091688156E-3
1.374268094E1,8.589617908E-3
1.374742505E1,1.083763689E-2
1.375216916E1,1.259498298E-3
1.375691328E1,1.311734319E-2
1.376165739E1,-1.074510813E-2
1.376640151E1,-1.188576221E-3
1.377114562E1,1.068943739E-2
1.377588974E1,1.084044576E-3
1.378063385E1,9.937137365E-4
1.378537791E1,1.017384231E-3
1.379012208E1,1.050459594E-2
1.379486620E1,3.245368600E-3
1.379961031E1,7.924064994E-4
1.380435437E1,3.134593368E-3
1.380909849E1,-8.780248463E-3
1.381384260E1,-3.929607570E-3
1.381858677E1,-1.572932303E-2
1.382333083E1,-1.356780529E-3
1.382807495E1,1.764151454E-2
1.383281906E1,3.261141479E-3
1.383756317E1,-8.598022163E-3
1.384230729E1,1.043237001E-2
1.384705140E1,1.269422472E-2
1.385179552E1,-1.672931015E-3
1.385653963E1,1.018109918E-2
1.386128375E1,7.755786180E-3
1.386602786E1,-8.886836469E-3
1.387077198E1,7.829576731E-3
1.387551609E1,-1.723028719E-3
1.388026021E1,1.967921108E-2
1.388500432E1,-1.836776733E-3
1.388974844E1,-1.128082722E-2
1.389449255E1,1.494707167E-2
1.389923666E1,-8.931100368E-3
1.390398078E1,-8.824728429E-3
1.390872489E1,1.026381552E-2
1.391346901E1,-2.303836495E-2
1.391821312E1,-1.458242536E-3
1.392295724E1,8.049368858E-3
1.392770135E1,5.641348660E-3
1.393244547E1,9.657517076E-4
1.393718958E1,1.048140973E-2
1.394193370E1,-8.584819734E-3
1.394667781E1,3.355056047E-3
1.395142192E1,1.754007488E-2
1.395616604E1,-3.929860890E-3
1.396091015E1,1.508987695E-2
1.396565427E1,-1.642115414E-3
1.397039838E1,-1.106001437E-2
1.397514250E1,-1.444369555E-3
1.397988661E1,8.062884212E-3
1.398463073E1,1.511850953E-2
1.398937484E1,1.262332499E-2
1.399411896E1,-4.060104489E-3
1.399886307E1,-6.395220757E-3
1.400360719E1,7.870808244E-3
1.400835130E1,1.492779702E-2
1.401309541E1,7.688440382E-3
1.401783953E1,-1.369939744E-2
1.402258364E1,-8.779272437E-3
1.402732776E1,3.105714917E-3
1.403207187E1,6.543844938E-4
1.403681599E1,3.053747118E-3
1.404156010E1,6.875991821E-4
1.404630422E1,-1.117885858E-2
1.405104833E1,-1.345488429E-2
1.405579245E1,3.243334591E-3
1.406053656E1,-8.643686771E-3
1.406528062E1,-2.043238282E-2
1.407002474E1,-1.246623695E-3
1.407476885E1,1.300522685E-2
1.407951297E1,-1.320116222E-2
1.408425708E1,-1.077060401E-2
1.408900120E1,8.277893066E-3
1.409374531E1,8.184351027E-3
1.409848942E1,-1.399934292E-3
1.410323354E1,-1.565106213E-2
1.410797765E1,-6.025172770E-3
1.411272177E1,-6.027773023E-3
1.411746588E1,-1.309249550E-2
1.412221000E1,-8.205920458E-3
1.412695411E1,-3.387846053E-3
1.413169823E1,6.135843694E-3
1.413644234E1,-1.029759645E-3
1.414118646E1,-8.107654750E-3
1.414593057E1,-5.635030568E-3
1.415067468E1,-5.555897951E-3
1.415541880E1,-2.211560309E-2
1.416016291E1,-5.288705230E-3
1.416490703E1,-7.642075419E-3
1.416965114E1,-7.574215531E-3
1.417439526E1,4.357241094E-3
1.417913937E1,2.330816537E-2
1.418388349E1,8.852556348E-3
1.418862760E1,-3.081932664E-3
1.419337172E1,-6.789490581E-4
1.419811583E1,6.477519870E-3
1.420285994E1,8.799888194E-3
1.420760406E1,-5.507275462E-3
1.421234817E1,-5.429916084E-3
1.421709229E1,1.600321382E-2
1.422183640E1,-3.137767315E-3
1.422658052E1,-1.262747496E-2
1.423132463E1,-1.017368585E-2
1.423606875E1,-2.966083586E-3
1.424081286E1,-2.965442836E-3
1.424555698E1,-5.643814802E-4
1.425030109E1,6.590895355E-3
1.425504521E1,-1.004202664E-2
1.425978932E1,4.282645881E-3
1.426453344E1,1.136977971E-2
1.426927755E1,6.532721221E-3
1.427402166E1,-3.009311855E-3
1.427876578E1,1.765944064E-3
1.428350989E1,-7.764391601E-3
1.428825401E1,-5.379386246E-3
1.429299812E1,1.759767532E-3
1.429774224E1,-5.369849503E-3
1.430248630E1,1.797482371E-3
1.430723047E1,6.504178047E-3
1.431197458E1,-3.065623343E-3
1.431671864E1,-5.380302668E-3
1.432146276E1,1.127839833E-2
1.432620687E1,8.843235672E-3
1.433095099E1,1.111786067E-2
1.433569510E1,-5.609281361E-3
1.434043922E1,-3.214217722E-3
1.434518333E1,-1.033040881E-2
1.434992744E1,3.940396011E-3
1.435467156E1,1.574742049E-2
1.435941567E1,6.100334227E-3
1.436415979E1,-1.064963639E-3
1.436890390E1,-3.424569964E-3
1.437364802E1,-1.525698602E-2
1.437839213E1,6.258510053E-3
1.438313625E1,-1.514565200E-2
1.438788036E1,-3.179349005E-3
1.439262448E1,6.285853684E-3
1.439736859E1,3.864519298E-3
1.440211271E1,1.407347620E-3
1.440685682E1,-1.521086693E-2
1.441160094E1,-3.244020045E-3
1.441634505E1,1.105248183E-2
1.442108916E1,-9.003356099E-4
1.442583328E1,1.812264323E-2
1.443057739E1,1.082888991E-2
1.443532151E1,1.305943727E-2
1.444006562E1,-1.311915368E-2
1.444480974E1,-8.288137615E-3
1.444955385E1,-1.301741600E-2
1.445429797E1,6.077572703E-3
1.445904208E1,-1.088015735E-3
1.446378620E1,-5.820788443E-3
1.446853031E1,-8.141465485E-3
1.447327442E1,8.568495512E-3
1.447801854E1,-3.420136869E-3
1.448276265E1,-3.359928727E-3
1.448750677E1,-1.041863859E-2
1.449225088E1,-1.270076632E-2
1.449699500E1,-7.817216218E-3
1.450173911E1,-6.577447057E-4
1.450648323E1,8.899688721E-3
1.451122734E1,-1.018233597E-2
1.451597146E1,-7.748916745E-3
1.452071557E1,-1.005329937E-2
1.452545963E1,-1.476786286E-2
1.453020380E1,1.997560263E-3
1.453494791E1,-2.704896033E-3
1.453969203E1,4.411727190E-3
1.454443609E1,9.124428034E-3
1.454918021E1,-5.156964064E-3
1.455392432E1,4.352971911E-3
1.455866844E1,-2.741515636E-3
1.456341255E1,2.031274140E-3
1.456815666E1,9.136922657E-3
1.457290078E1,1.378245652E-2
1.457764489E1,-7.655918598E-3
1.458238901E1,4.304699600E-3
1.458713312E1,1.373603195E-2
1.459187724E1,1.761093736E-3
1.459662135E1,-2.967171371E-3
1.460136547E1,1.372814924E-2
1.460610958E1,-5.336657166E-3
1.461085370E1,1.603896916E-2
1.461559781E1,1.699730754E-3
1.462034192E1,-5.373120308E-3
1.462508604E1,-2.923749387E-3
1.462983015E1,-5.510449409E-4
1.463457427E1,-5.703046918E-4
1.463931838E1,6.557002664E-3
1.464406250E1,-6.123408675E-4
1.464880661E1,8.916459978E-3
1.465355073E1,1.121896505E-2
1.465829484E1,1.112917066E-2
1.466303896E1,1.577079296E-3
1.466778307E1,-3.205917776E-3
1.467252719E1,-8.301585913E-4
1.467727130E1,6.271071732E-3
1.468201541E1,1.094002277E-2
1.468675953E1,-3.356017172E-3
1.469150364E1,-1.758967340E-2
1.469624776E1,-1.512324810E-2
1.470099187E1,8.791789412E-3
1.470573599E1,-7.973238826E-4
1.471048010E1,-5.561009049E-3
1.471522422E1,1.107094437E-2
1.471996833E1,-3.283165395E-3
1.472471245E1,6.296381354E-3
1.472945656E1,-8.423030376E-4
1.473420067E1,1.100504398E-2
1.473894479E1,2.040904015E-2
1.474368890E1,-5.859278142E-3
1.474843302E1,-5.834773183E-3
1.475317713E1,-5.754210055E-3
1.475792125E1,6.133586168E-3
1.476266531E1,-1.295338571E-2
1.476740942E1,-8.152000606E-3
1.477215354E1,-9.899735451E-4
1.477689765E1,-9.780302644E-4
1.478164177E1,1.407176256E-3
1.478638588E1,6.172910333E-3
1.479113000E1,1.092766225E-2
1.479587411E1,6.066508591E-3
1.480061823E1,2.025695145E-2
1.480536234E1,5.882784724E-3
1.481010646E1,-1.074423641E-2
1.481485057E1,-1.536828279E-2
1.481959468E1,8.492536843E-3
1.482433880E1,-1.065827906E-3
1.482908291E1,-3.454394639E-3
1.483382703E1,-1.765897870E-2
1.483857114E1,8.622311056E-3
1.484331526E1,1.330015063E-2
1.484805937E1,-3.416925669E-3
1.485280349E1,-3.441259265E-3
1.485754760E1,-1.036234200E-3
1.486229172E1,1.377455890E-3
1.486703583E1,3.742545843E-3
1.487177994E1,1.317856461E-2
1.487652406E1,3.580905497E-3
1.488126817E1,1.544766128E-2
1.488601229E1,-1.287788153E-3
1.489075640E1,1.536529511E-2
1.489550052E1,1.286829263E-2
1.490024463E1,-3.845661879E-3
1.490498875E1,-3.809683025E-3
1.490973286E1,3.344878554E-3
1.491447698E1,5.722060800E-3
1.491922109E1,-1.440085471E-3
1.492396521E1,-1.566145569E-2
1.492870932E1,-1.552724838E-2
1.493345344E1,-5.902148783E-3
1.493819755E1,-3.476150334E-3
1.494294166E1,2.500284463E-2
1.494768578E1,-1.319618523E-2
1.495242984E1,-1.070940495E-2
1.495717396E1,1.248188317E-3
1.496191807E1,8.275851607E-3
1.496666218E1,3.493294120E-3
1.497140630E1,3.496125340E-3
1.497615041E1,1.098051667E-3
1.498089453E1,1.061213017E-2
1.498563864E1,5.781382322E-3
1.499038276E1,-2.511056513E-2
1.499512687E1,-3.542147577E-3
1.499987099E1,-8.283190429E-3
1.500461510E1,6.027296185E-3
1.500935922E1,-1.165889204E-3
1.501410333E1,-8.299149573E-3
1.501884744E1,-5.824685097E-3
1.502359156E1,-5.743965507E-3
1.502833567E1,-3.262788057E-3
1.503307979E1,1.100586355E-2
1.503782390E1,-8.093468845E-3
1.504256802E1,3.814056516E-3
1.504731213E1,-1.522486657E-2
1.505205625E1,8.606269956E-3
1.505680036E1,1.565689594E-2
1.506154448E1,6.010323763E-3
1.506628859E1,-3.527358174E-3
1.507103271E1,8.342601359E-3
1.507577682E1,-1.779597253E-2
1.508052094E1,-2.001614124E-2
1.508526505E1,-1.269851625E-2
1.509000916E1,6.393820047E-3
1.509475328E1,3.999598324E-3
1.509949739E1,3.998443484E-3
1.510424151E1,-1.261311024E-2
1.510898562E1,-1.250407100E-2
1.511372974E1,-5.315244198E-4
1.511847385E1,1.371388137E-2
1.512321797E1,6.513126194E-3
1.512796208E1,-1.014739275E-2
1.513270614E1,1.776792109E-3
1.513745031E1,1.131369919E-2
1.514219442E1,1.596911997E-2
1.514693849E1,6.320185959E-3
1.515168260E1,1.526176929E-3
1.515642672E1,-5.601726472E-3
1.516117083E1,1.623801887E-3
1.516591494E1,6.388202310E-3
1.517065906E1,1.621164382E-3
1.517540317E1,6.385348737E-3
1.518014729E1,1.102510095E-2
1.518489140E1,1.811207086E-2
1.518963552E1,-3.362625837E-3
1.519437963E1,6.132841110E-3
1.519912375E1,-5.750730634E-3
1.520386786E1,-5.698636174E-3
1.520861198E1,-1.273737848E-2
1.521335609E1,4.011116922E-3
1.521810021E1,1.347339898E-2
1.522284432E1,1.096439362E-2
1.522758844E1,1.357659698E-3
1.523233255E1,-5.796149373E-3
1.523707666E1,3.776095808E-3
1.524182078E1,-1.048897207E-2
1.524656489E1,-9.345859289E-4
1.525130901E1,-5.725614727E-3
1.525605312E1,-3.329582512E-3
1.526079724E1,1.447394490E-3
1.526554135E1,3.783643246E-3
1.527028547E1,-2.474702895E-2
1.527502958E1,-3.180928528E-3
1.527977370E1,3.968149424E-3
1.528451781E1,-1.744518429E-2
1.528926192E1,1.687191427E-3
1.529400604E1,1.351345330E-2
1.529875015E1,-1.035230607E-2
1.530349427E1,-5.516573787E-3
1.530823838E1,6.397731602E-3
1.531298245E1,-5.544312298E-3
1.531772656E1,6.341971457E-3
1.532247073E1,6.264559925E-3
1.532721479E1,-1.511115581E-2
1.533195890E1,1.112040877E-2
1.533670302E1,-7.980108261E-3
1.534144713E1,-2.217523009E-2
1.534619125E1,-3.003202379E-3
1.535093536E1,-1.012138277E-2
1.535567948E1,6.577067077E-3
1.536042359E1,1.751944423E-3
1.536516771E1,1.741275191E-3
1.536991182E1,6.448194385E-3
1.537465594E1,-1.735868305E-2
1.537940005E1,-2.972319722E-3
1.538414416E1,8.949279785E-3
1.538888828E1,6.477490067E-3
1.539363239E1,1.351784170E-2
1.539837651E1,1.544952393E-3
1.540312062E1,8.654654026E-3
1.540786474E1,3.868944943E-3
1.541260885E1,1.093056798E-2
1.541735297E1,8.442044258E-3
1.542209708E1,6.030745804E-3
1.542684120E1,-1.065377146E-2
1.543158531E1,1.303359866E-3
1.543632942E1,-1.291262358E-2
1.544107354E1,-8.026830852E-3
1.544581765E1,2.051834017E-2
1.545056177E1,-9.768754244E-4
1.545530588E1,-3.366179764E-3
1.546005000E1,-5.735091865E-3
1.546479411E1,3.836646676E-3
1.546953823E1,1.378990710E-3
1.547428229E1,-1.049274206E-2
1.547902646E1,-7.971741259E-3
1.548377057E1,-1.024602354E-2
1.548851463E1,-1.015694439E-2
1.549325875E1,-1.481436938E-2
1.549800286E1,-5.223944783E-3
1.550274698E1,-4.589632154E-4
1.550749109E1,1.850383729E-2
1.551223521E1,-2.974361181E-3
1.551697932E1,-5.347013474E-3
1.552172344E1,4.221245646E-3
1.552646755E1,-5.330011249E-3
1.553121166E1,-1.951942593E-2
1.553595578E1,-2.169770747E-2
1.554069989E1,4.616513848E-3
1.554544401E1,-1.674595475E-2
1.555018812E1,9.470753372E-3
1.555493224E1,2.305604517E-3
1.555967635E1,2.318806946E-3
1.556442047E1,1.651269197E-2
1.556916458E1,2.084754407E-3
1.557390870E1,-9.821362793E-3
1.557865281E1,-5.017831922E-3
1.558339692E1,-9.745873511E-3
1.558814104E1,4.548072815E-3
1.559288515E1,2.112977207E-3
1.559762927E1,-4.991106689E-3
1.560237338E1,-5.002088845E-3
1.560711750E1,4.534810781E-3
1.561186161E1,9.274967015E-3
1.561660573E1,-1.221107692E-2
1.562134984E1,6.877906621E-3
1.562609396E1,-2.638988197E-3
1.563083802E1,-2.681985497E-4
1.563558218E1,-1.212644577E-2
1.564032630E1,-2.530395985E-3
1.564507041E1,-1.044720411E-4
1.564981453E1,4.646085203E-3
1.565455859E1,1.413154602E-2
1.565930271E1,4.497937858E-3
1.566404682E1,2.091281116E-3
1.566879094E1,4.422411323E-3
1.567353505E1,1.388102770E-2
1.567827916E1,-5.242250860E-3
1.568302328E1,-7.596001029E-3
1.568776739E1,1.991011202E-3
1.569251151E1,-1.694820821E-2
1.569725562E1,-7.339984179E-3
1.570199974E1,-1.847222447E-4
1.570674385E1,-7.297903299E-3
1.571148797E1,-5.801022053E-5
1.571623208E1,-2.482987940E-3
1.572097620E1,1.412378997E-2
1.572572031E1,-1.987814903E-4
1.573046442E1,1.167050749E-2
1.573520854E1,-2.660334110E-3
1.573995265E1,6.857290864E-3
1.574469677E1,-2.167073637E-2
1.574944088E1,6.960354745E-3
1.575418500E1,-1.207653433E-2
1.575892911E1,-7.225960493E-3
1.576367323E1,-2.444304526E-3
1.576841734E1,-1.428441703E-2
1.577316146E1,7.584691048E-5
1.577790557E1,-7.011726499E-3
1.578264968E1,4.886783659E-3
1.578739380E1,4.793487489E-3
1.579213786E1,4.757471383E-3
1.579688198E1,-2.399832010E-5
1.580162609E1,-2.364501357E-3
1.580637021E1,7.150188088E-3
1.581111432E1,7.122546434E-3
1.581585844E1,-9.572252631E-3
1.582060255E1,-2.550333738E-5
1.582534666E1,-2.112239599E-5
1.583009078E1,-7.135666907E-3
1.583483489E1,-4.642888904E-3
1.583957901E1,-4.600033164E-3
1.584432312E1,1.205217838E-2
1.584906724E1,7.209673524E-3
1.585381135E1,1.430018991E-2
1.585855547E1,1.181184500E-2
1.586329958E1,1.640637964E-2
1.586804370E1,-2.709232271E-3
1.587278781E1,-3.380849957E-4
1.587753192E1,2.013295889E-3
1.588227604E1,1.146349311E-2
1.588702015E1,-2.921670675E-3
1.589176427E1,-1.241316646E-2
1.589650838E1,-5.215622485E-3
1.590125250E1,-5.111493170E-3
1.590599661E1,4.454813898E-3
1.591074073E1,-1.216030121E-2
1.591548484E1,-4.936374724E-3
1.592022896E1,-2.390284836E-2
1.592497307E1,-1.423621178E-2
1.592971719E1,-2.249225974E-3
1.593446125E1,1.203922182E-2
1.593920536E1,2.450838685E-3
1.594394953E1,1.669965684E-2
1.594869359E1,-4.573911428E-5
1.595343771E1,-9.589940310E-3
1.595818182E1,-9.477838874E-3
1.596292594E1,-2.276040614E-3
1.596767005E1,2.492398024E-3
1.597241416E1,1.309290528E-4
1.597715828E1,7.223688066E-3
1.598190239E1,4.902482033E-5
1.598664651E1,7.171422243E-3
1.599139062E1,-1.666996628E-2
1.599613474E1,-2.317599952E-3
1.600087885E1,9.626559913E-3
1.600562297E1,7.177390158E-3
1.601036708E1,-1.663555950E-2
1.601511120E1,9.580232203E-3
1.601985531E1,7.131211460E-3
1.602459942E1,7.075488567E-3
1.602934354E1,-7.216818631E-3
1.603408765E1,-2.378970385E-3
1.603883177E1,4.735179245E-3
1.604357588E1,7.044047117E-3
1.604832000E1,-1.013427973E-4
1.605306411E1,-1.907986403E-2
1.605780823E1,-7.052518427E-3
1.606255234E1,4.818081856E-3
1.606729646E1,7.154740393E-3
1.607204057E1,-1.900265366E-2
1.607678463E1,2.515345812E-3
1.608152875E1,-4.620566964E-3
1.608627286E1,2.540528774E-3
1.609101698E1,-2.194233239E-3
1.609576109E1,-6.917782128E-3
1.610050521E1,-2.109967172E-3
1.610524932E1,1.452171803E-2
1.610999344E1,7.285982370E-3
1.611473755E1,1.440411806E-2
1.611948166E1,-2.605098486E-2
1.612422578E1,-1.396555454E-2
1.612896989E1,-9.071461856E-3
1.613371401E1,1.233622432E-2
1.613845812E1,-6.773717701E-3
1.614320224E1,2.806439996E-3
1.614794635E1,2.786748111E-3
1.615269047E1,1.228699833E-2
1.615743458E1,9.815894067E-3
1.616217870E1,-2.126149833E-3
1.616692281E1,1.687856019E-2
1.617166692E1,-6.986983120E-3
1.617641104E1,-4.608683288E-3
1.618115515E1,-1.640298218E-2
1.618589927E1,1.221223921E-2
1.619064338E1,-2.151139081E-3
1.619538750E1,-9.248159826E-3
1.620013161E1,-1.631429046E-2
1.620487573E1,4.357844591E-4
1.620961984E1,7.554724813E-3
1.621436390E1,1.221298426E-2
1.621910802E1,-1.401481032E-2
1.622385213E1,7.490567863E-3
1.622859625E1,-2.030961215E-3
1.623334036E1,-9.157001972E-3
1.623808448E1,-1.385053992E-2
1.624282859E1,-1.375920326E-2
1.624757271E1,1.717861742E-2
1.625231682E1,5.203224719E-3
1.625706094E1,3.895610571E-4
1.626180505E1,-1.621993631E-2
1.626654916E1,-1.815758646E-3
1.627129328E1,7.666580379E-3
1.627603739E1,-8.947044611E-3
1.628078151E1,3.024116158E-3
1.628552562E1,1.240961999E-2
1.629026974E1,-9.074054658E-3
1.629501385E1,5.255118012E-4
1.629975797E1,5.270585418E-3
1.630450208E1,-6.577312946E-3
1.630924620E1,1.249249279E-2
1.631399031E1,-4.217855632E-3
1.631873442E1,7.713876665E-3
1.632347854E1,7.653526962E-3
1.632822265E1,2.420385927E-2
1.633296677E1,1.211319119E-2
1.633771088E1,-2.221114933E-3
1.634245500E1,1.742169261E-4
1.634719906E1,1.675909013E-2
1.635194317E1,7.103569806E-3
1.635668729E1,9.392470121E-3
1.636143140E1,-4.947178066E-3
1.636617552E1,-4.930272698E-3
1.637091963E1,2.261638641E-3
1.637566375E1,-2.148211002E-2
1.638040786E1,-9.463004768E-3
1.638515198E1,-4.634685814E-3
1.638989609E1,-6.965726614E-3
1.639464021E1,-4.615858197E-3
1.639938432E1,1.440959424E-2
1.640412844E1,4.858896136E-3
1.640887255E1,4.822336137E-3
1.641361666E1,-7.106810808E-3
1.641836078E1,-1.890807599E-2
1.642310489E1,-2.108387649E-3
1.642784901E1,7.432885468E-3
1.643259312E1,2.560019493E-4
1.643733724E1,2.575591207E-4
1.644208135E1,-6.887562573E-3
1.644682547E1,1.215682179E-2
1.645156958E1,-2.178080380E-3
1.645631370E1,-9.274885058E-3
1.646105781E1,2.693831921E-4
1.646580192E1,5.073323846E-3
1.647054599E1,2.662345767E-3
1.647529010E1,1.685313135E-2
1.648003422E1,-2.238199115E-3
1.648477833E1,1.199342310E-2
1.648952245E1,2.405650914E-3
1.649426656E1,2.417780459E-3
1.649901067E1,-9.491108358E-3
1.650375479E1,2.456337214E-3
1.650849890E1,-2.305969596E-3
1.651324302E1,-1.174634695E-2
1.651798713E1,-1.639030129E-2
1.652273125E1,-9.130887687E-3
1.652747536E1,-1.145223528E-2
1.653221948E1,-4.233978689E-3
1.653696359E1,-1.134118438E-2
1.654170771E1,1.011272520E-2
1.654645182E1,-6.606042385E-3
1.655119594E1,5.373604596E-3
1.655594005E1,-8.932791650E-3
1.656068416E1,-1.763544977E-3
1.656542828E1,1.489374787E-2
1.657017239E1,-1.836612821E-3
1.657491651E1,7.645182312E-3
1.657966062E1,7.613413036E-3
1.658440474E1,-1.617492735E-2
1.658914880E1,1.006550342E-2
1.659389291E1,2.895161510E-3
1.659863703E1,-1.136209071E-2
1.660338114E1,7.748067379E-3
1.660812526E1,-1.776322722E-3
1.661286937E1,-6.475105882E-3
1.661761349E1,-4.016324878E-3
1.662235760E1,7.948502898E-4
1.662710172E1,5.566157401E-3
1.663184583E1,1.504348218E-2
1.663658994E1,3.029391170E-3
1.664133406E1,1.487248391E-2
1.664607817E1,-8.976578712E-3
1.665082229E1,5.282938480E-3
1.665556640E1,7.615722716E-3
1.666031052E1,-1.935809851E-3
1.666505463E1,-6.690233946E-3
1.666979875E1,-1.134830713E-2
1.667454286E1,-2.068555355E-2
1.667928698E1,-1.101794839E-2
1.668403109E1,8.032359183E-3
1.668877521E1,-3.923542798E-3
1.669351932E1,7.977254689E-3
1.669826344E1,1.266047359E-2
1.670300755E1,1.487551630E-2
1.670775166E1,-4.227809608E-3
1.671249573E1,-1.845443994E-2
1.671723984E1,-1.686297357E-3
1.672198396E1,-4.041194916E-3
1.672672807E1,3.114826977E-3
1.673147218E1,-1.652970910E-3
1.673621630E1,7.856018841E-3
1.674096041E1,-6.414793432E-3
1.674570453E1,3.105387092E-3
1.675044864E1,-1.112584770E-2
1.675519276E1,-6.283670664E-3
1.675993687E1,-3.826484084E-3
1.676468099E1,3.327749670E-3
1.676942510E1,8.049465716E-3
1.677416922E1,1.273208857E-2
1.677891333E1,1.734671742E-2
1.678365744E1,-4.121601582E-3
1.678840156E1,7.809802890E-3
1.679314567E1,-4.087261856E-3
1.679788979E1,-6.422385573E-3
1.680263390E1,1.499100029E-2
1.680737797E1,-4.141539335E-3
1.681212213E1,-4.131585360E-3
1.681686625E1,-1.720577478E-3
1.682161036E1,2.199802548E-2
1.682635442E1,4.622340202E-4
1.683109854E1,1.941711456E-2
1.683584265E1,2.761781216E-4
1.684058677E1,2.650216222E-3
1.684533088E1,-1.635100693E-2
1.685007500E1,5.117118359E-3
1.685481911E1,3.041625023E-4
1.685956323E1,1.454284042E-2
1.686430734E1,4.961833358E-3
1.686905146E1,9.698435664E-3
1.687379557E1,7.305167615E-3
1.687853968E1,2.530723810E-3
1.688328380E1,2.513095737E-3
1.688802791E1,-1.408559829E-2
1.689277203E1,-1.396404207E-2
1.689751614E1,9.856827557E-3
1.690226026E1,2.868548036E-4
1.690700437E1,7.378540933E-3
1.691174849E1,4.891358316E-3
1.691649260E1,4.854530096E-3
1.692123672E1,-2.300873399E-3
1.692598083E1,-7.023297250E-3
1.693072494E1,9.621314704E-3
1.693546901E1,-1.421177387E-2
1.694021312E1,-1.408941299E-2
1.694495724E1,5.014754832E-3
1.694970135E1,2.026557922E-4
1.695444547E1,-1.640505344E-2
1.695918958E1,3.455355763E-4
1.696393370E1,1.223924011E-2
1.696867781E1,3.047883511E-4
1.697342192E1,-1.636075228E-2
1.697816604E1,-1.982942224E-3
1.698291015E1,7.500782609E-3
1.698765427E1,1.927814633E-2
1.699239838E1,1.381412148E-4
1.699714250E1,2.457290888E-3
1.700188661E1,4.785597324E-3
1.700663073E1,-9.487874806E-3
1.701137484E1,7.177039981E-3
1.701611896E1,-4.743710160E-3
1.702086307E1,2.446420491E-3
1.702560719E1,4.774592817E-3
1.703035130E1,1.420225203E-2
1.703509541E1,-1.204235852E-2
1.703983953E1,-1.190982014E-2
1.704458364E1,9.577780962E-3
1.704932771E1,-9.481154382E-3
1.705407182E1,1.192901284E-2
1.705881594E1,2.586841583E-5
1.706356005E1,-9.462185204E-3
1.706830416E1,1.119077206E-4
1.707304828E1,-7.032699883E-3
1.707779239E1,-6.970159709E-3
1.708253651E1,4.956029356E-3
1.708728062E1,7.291547954E-3
1.709202474E1,8.783489466E-5
1.709676885E1,2.491928637E-3
1.710151297E1,4.847735167E-3
1.710625708E1,1.435907185E-2
1.711100120E1,-2.338811755E-3
1.711574531E1,4.803255200E-3
1.712048942E1,-1.178650558E-2
1.712523354E1,-1.165609807E-2
1.712997765E1,5.055375397E-3
1.713472177E1,2.399977297E-2
1.713946588E1,4.820413888E-3
1.714421000E1,-4.735596478E-3
1.714895406E1,7.143951952E-3
1.715369817E1,-9.549841285E-3
1.715844229E1,5.322694778E-5
1.716318640E1,7.147103548E-3
1.716793052E1,-1.191959530E-2
1.717267463E1,-4.697680473E-3
1.717741875E1,2.622134238E-2
1.718216286E1,7.023707032E-3
1.718690698E1,-9.612582624E-3
1.719165109E1,-7.155649364E-3
1.719639521E1,2.342708409E-3
1.720113932E1,-4.792235792E-3
1.720588344E1,-1.661302149E-2
1.721062755E1,1.437683403E-2
1.721537166E1,5.215406418E-5
1.722011578E1,-2.289220691E-3
1.722485989E1,-4.695594311E-3
1.722960401E1,-2.279885113E-3
1.723434812E1,1.444146037E-4
1.723909224E1,1.201131940E-2
1.724383630E1,4.825226963E-3
1.724858041E1,-4.759073257E-3
1.725332453E1,-1.892476529E-2
1.725806864E1,7.338814437E-3
1.726281276E1,-9.356603026E-3
1.726755687E1,1.885890961E-4
1.727230099E1,1.911818981E-4
1.727704510E1,-6.924897432E-3
1.728178922E1,2.556294203E-4
1.728653333E1,2.686582506E-3
1.729127745E1,-4.450514913E-3
1.729602156E1,-4.352986813E-3
1.730076567E1,-1.883395016E-3
1.730550979E1,-8.925445378E-3
1.731025390E1,-4.100896418E-3
1.731499802E1,3.055863082E-3
1.731974213E1,1.018145680E-2
1.732448625E1,-6.566129625E-3
1.732923036E1,2.191036940E-2
1.733397448E1,-1.997336745E-3
1.733871859E1,7.571272552E-3
1.734346265E1,-6.697155535E-3
1.734820682E1,1.237390190E-2
1.735295088E1,-1.962564886E-3
1.735769500E1,5.147643387E-3
1.736243911E1,7.452607155E-3
1.736718323E1,-1.393348724E-2
1.737192734E1,1.940668374E-2
1.737667146E1,-6.881296635E-3
1.738141557E1,2.701431513E-4
1.738615969E1,1.213623583E-2
1.739090380E1,-1.166176796E-2
1.739564791E1,-4.470251501E-3
1.740039203E1,-9.203322232E-3
1.740513614E1,-4.405170679E-3
1.740988026E1,7.527895272E-3
1.741462437E1,-1.994170249E-3
1.741936849E1,5.144789815E-3
1.742411260E1,9.851850569E-3
1.742885672E1,2.539157867E-4
1.743360078E1,-1.160868257E-2
1.743834494E1,5.102165043E-3
1.744308901E1,-1.866523921E-2
1.744783312E1,1.711573452E-2
1.745257724E1,1.463287324E-2
1.745732135E1,-2.345171571E-2
1.746206547E1,-9.015053511E-3
1.746680958E1,-1.845367253E-3
1.747155370E1,1.712875813E-2
1.747629781E1,1.939108968E-2
1.748104192E1,2.623260021E-3
1.748578604E1,-9.259320796E-3
1.749053015E1,-4.404671490E-3
1.749527427E1,-2.019636333E-3
1.750001838E1,5.119539797E-3
1.750476250E1,-4.438959062E-3
1.750950661E1,1.218412071E-2
1.751425073E1,4.967875779E-3
1.751899484E1,-9.335130453E-3
1.752373896E1,2.582766116E-3
1.752848302E1,-1.164386421E-2
1.753322713E1,-2.079851925E-3
1.753797125E1,-4.431933165E-3
1.754271536E1,2.727113664E-3
1.754745948E1,3.071948886E-4
1.755220359E1,2.625174820E-3
1.755694771E1,-1.168633997E-2
1.756169182E1,-4.466362298E-3
1.756643594E1,-1.151631773E-2
1.757118005E1,-1.925118268E-3
1.757592416E1,-4.306271672E-3
1.758066828E1,5.224838853E-3
1.758541239E1,-1.382677257E-2
1.759015651E1,-1.815192401E-3
1.759490062E1,1.009652764E-2
1.759964474E1,-1.848317683E-3
1.760438885E1,-4.201628268E-3
1.760913297E1,2.188251913E-2
1.761387708E1,-1.863537729E-2
1.761862114E1,5.281150341E-3
1.762336526E1,1.470412314E-2
1.762810937E1,-1.996397972E-3
1.763285349E1,-6.721355021E-3
1.763759760E1,4.285201430E-4
1.764234172E1,4.286542535E-4
1.764708583E1,9.920306504E-3
1.765182994E1,1.693173498E-2
1.765657406E1,2.585761249E-3
1.766131817E1,-4.522025585E-3
1.766606229E1,-4.480637610E-3
1.767080640E1,3.341808915E-4
1.767555052E1,3.070831299E-4
1.768029463E1,-1.398534328E-2
1.768503875E1,-9.119100869E-3
1.768978286E1,-1.948773861E-3
1.769452698E1,9.935103357E-3
1.769927109E1,-9.155772626E-3
1.770401521E1,2.760156989E-3
1.770875927E1,1.935079694E-2
1.771350338E1,7.356829941E-3
1.771824750E1,1.808255911E-4
1.772299161E1,-6.907381117E-3
1.772773573E1,2.673655748E-3
1.773247984E1,-6.836220622E-3
1.773722396E1,2.404389530E-2
1.774196807E1,-4.683397710E-3
1.774671218E1,-4.668690264E-3
1.775145630E1,-2.225190401E-3
1.775620041E1,-2.202481031E-3
1.776094453E1,-1.876213402E-2
1.776568864E1,-6.737895310E-3
1.777043276E1,-1.854223758E-2
1.777517687E1,-8.920513093E-3
1.777992099E1,7.767699659E-3
1.778466510E1,-1.599343866E-2
1.778940922E1,1.739237458E-2
1.779415328E1,3.013595939E-3
1.779889739E1,1.251194626E-2
1.780364151E1,5.292721093E-3
1.780838562E1,-9.012989700E-3
1.781312974E1,5.303107202E-3
1.781787385E1,-8.974686265E-3
1.782261797E1,1.005837321E-2
1.782736208E1,9.950235486E-3
1.783210620E1,5.097232759E-3
1.783685031E1,9.776435792E-3
1.784159442E1,4.953354597E-3
1.784633854E1,2.514652908E-3
1.785108265E1,-9.367264807E-3
1.785582677E1,-6.884135306E-3
1.786057088E1,-4.449956119E-3
1.786531500E1,-1.152759045E-2
1.787005911E1,5.154557526E-3
1.787480317E1,-1.974858344E-3
1.787954729E1,1.942972839E-2
1.788429140E1,2.689585090E-3
1.788903552E1,9.761497378E-3
1.789377963E1,-4.553683102E-3
1.789852375E1,7.352359593E-3
1.790326786E1,1.675877720E-2
1.790801198E1,2.357743680E-3
1.791275609E1,2.370044589E-3
1.791750021E1,1.656303555E-2
1.792224432E1,-4.955723882E-3
1.792698844E1,4.609279335E-3
1.793173255E1,4.574090242E-3
1.793647666E1,-1.207002997E-2
1.794122078E1,-9.621120989E-3
1.794596489E1,-1.193837821E-2
1.795070896E1,-1.420854777E-2
1.795545312E1,9.642384946E-3
1.796019724E1,1.193883270E-2
1.796494130E1,-2.422034740E-3
1.796968541E1,2.348080277E-3
1.797442953E1,7.078208029E-3
1.797917364E1,1.411356032E-2
1.798391776E1,-1.447470486E-2
1.798866187E1,-4.858858883E-3
1.799340599E1,-7.244281471E-3
1.799815010E1,2.369573712E-2
1.800289422E1,1.401044428E-2
1.800763833E1,4.406094551E-3
1.801238244E1,1.151997596E-2
1.801712656E1,2.800960839E-2
1.802187067E1,4.051066935E-3
1.802661479E1,-1.024407148E-2
1.803135890E1,-1.252765208E-2
1.803610302E1,-2.899542451E-3
1.804084708E1,-7.616981864E-3
1.804559120E1,1.941956580E-3
1.805033531E1,4.274092615E-3
1.805507942E1,4.242405295E-3
1.805982354E1,1.367426664E-2
1.806456765E1,2.305577695E-2
1.806931177E1,1.331955194E-2
1.807405588E1,-8.143685758E-3
1.807880000E1,-1.047302783E-2
1.808354411E1,3.883488476E-3
1.808828823E1,-8.911713958E-4
1.809303234E1,-5.653828382E-3
1.809777646E1,-1.509431005E-2
1.810252057E1,-5.416795611E-3
1.810726468E1,-2.995081246E-3
1.811200880E1,4.152677953E-3
1.811675291E1,-5.397535861E-3
1.812149703E1,-6.026253104E-4
1.812624109E1,4.208579659E-3
1.813098521E1,1.804329455E-3
1.813572932E1,-2.980791032E-3
1.814047344E1,1.737259328E-3
1.814521755E1,-1.016572118E-2
1.814996166E1,-5.855411291E-4
1.815470578E1,-4.922226071E-4
1.815944989E1,-1.472149044E-2
1.816419401E1,1.150658727E-2
1.816893812E1,-4.502460361E-4
1.817368224E1,6.676070392E-3
1.817842635E1,-1.235845685E-2
1.818317047E1,6.760470569E-3
1.818791458E1,-2.755440772E-3
1.819265870E1,4.389859736E-3
1.819740281E1,4.413940012E-3
1.820214687E1,9.183585644E-3
1.820689099E1,-2.724945545E-3
1.821163510E1,-1.456271112E-2
1.821637922E1,-9.720146656E-3
1.822112333E1,-2.545043826E-3
1.822586745E1,-4.893012345E-3
1.823061156E1,-1.436831802E-2
1.823535567E1,4.738174379E-3
1.824009979E1,9.419903159E-3
1.824484390E1,4.656068981E-3
1.824958802E1,4.621200264E-3
1.825433213E1,1.645127684E-2
1.825907625E1,-2.635791898E-4
1.826382036E1,6.889902055E-3
1.826856448E1,9.265795350E-3
1.827330854E1,-1.447982341E-2
1.827805265E1,6.972454488E-3
1.828279682E1,-2.286061645E-4
1.828754088E1,1.161361486E-2
1.829228500E1,9.148120880E-3
1.829702911E1,4.273317754E-3
1.830177323E1,-5.193389952E-3
1.830651734E1,4.374295473E-3
1.831126146E1,-4.039779305E-4
1.831600557E1,9.123086929E-3
1.832074969E1,6.706349552E-3
1.832549380E1,-4.644691944E-4
1.833023791E1,6.690450013E-3
1.833498203E1,1.141265035E-2
1.833972614E1,-1.006318629E-2
1.834447026E1,-1.480590552E-2
1.834921437E1,1.959607005E-3
1.835395849E1,4.319854081E-3
1.835870255E1,6.632417440E-3
1.836344666E1,6.637580693E-3
1.836819078E1,-5.306452513E-3
1.837293489E1,-7.630944252E-3
1.837767901E1,1.141963899E-2
1.838242312E1,4.209287465E-3
1.838716724E1,4.178151488E-3
1.839191135E1,-5.372978747E-3
1.839665547E1,-1.244315505E-2
1.840139958E1,-5.188398063E-3
1.840614370E1,1.977428794E-3
1.841088781E1,1.380126923E-2
1.841563192E1,-2.920210361E-3
1.842037604E1,4.226230085E-3
1.842512015E1,-1.710473001E-2
1.842986422E1,-7.466010749E-3
1.843460833E1,-2.682350576E-3
1.843935244E1,-1.223211735E-2
1.844409656E1,-1.447135210E-2
1.844884067E1,-2.482883632E-3
1.845358479E1,-2.144108713E-2
1.845832890E1,6.898492575E-5
1.846307302E1,-1.424994320E-2
1.846781713E1,-4.635959864E-3
1.847256125E1,-2.192035317E-3
1.847730536E1,9.722828865E-3
1.848204948E1,9.702242911E-3
1.848679359E1,4.879556596E-3
1.849153771E1,1.436213404E-2
1.849628182E1,7.155507803E-3
1.850102588E1,1.421846449E-2
1.850577000E1,-7.251791656E-3
1.851051411E1,-4.758752882E-3
1.851525823E1,-9.461402893E-3
1.852000234E1,-1.652552933E-2
1.852474646E1,9.661316872E-3
1.852949057E1,3.670901060E-5
1.853423468E1,2.441458404E-3
1.853897880E1,-4.665359855E-3
1.854372291E1,1.673315465E-2
1.854846703E1,-7.102459669E-3
1.855321114E1,1.428810507E-2
1.855795526E1,9.426981211E-3
1.856269937E1,-1.104474068E-4
1.856744349E1,9.357444942E-3
1.857218760E1,1.165581495E-2
1.857693166E1,2.070859075E-3
1.858167578E1,-3.716200590E-4
1.858641989E1,-3.930777311E-4
1.859116401E1,-5.159884691E-3
1.859590812E1,-2.172312886E-2
1.860065224E1,4.563771188E-3
1.860539635E1,-7.334500551E-3
1.861014047E1,4.566706717E-3
1.861488458E1,-2.156958729E-2
1.861962870E1,-7.148839533E-3
1.862437281E1,2.377711236E-3
1.862911692E1,-7.101923227E-3
1.863386104E1,2.310425043E-5
1.863860515E1,-4.718922079E-3
1.864334922E1,4.872366786E-3
1.864809333E1,2.406321466E-3
1.865283744E1,-1.659286022E-2
1.865758156E1,-9.275734425E-3
1.866232567E1,-1.394002885E-2
1.866706979E1,7.507756352E-3
1.867181390E1,3.022402525E-4
1.867655802E1,-1.153298467E-2
1.868130213E1,-1.140540093E-2
1.868604625E1,7.704176009E-3
1.869079036E1,1.241768897E-2
1.869553448E1,-1.615644246E-2
1.870027859E1,1.477310807E-2
1.870502271E1,-4.385627806E-3
1.870976682E1,-9.090684354E-3
1.871451088E1,-1.138434559E-2
1.871925500E1,1.007040590E-2
1.872399911E1,4.993677139E-4
1.872874323E1,-4.246398807E-3
1.873348734E1,-4.150576890E-3
1.873823146E1,-8.858054876E-3
1.874297557E1,-1.690141857E-3
1.874771968E1,-6.418116391E-3
1.875246380E1,5.475223064E-3
1.875720791E1,1.726946235E-2
1.876195203E1,-1.137335598E-2
1.876669614E1,1.482682675E-2
1.877144026E1,-4.247836769E-3
1.877618437E1,-2.081914991E-2
1.878092849E1,-6.404891610E-3
1.878567260E1,-1.583935320E-2
1.879041672E1,-1.095765084E-2
1.879516078E1,1.052155346E-2
1.879990489E1,-1.426599920E-3
1.880464901E1,-2.039360255E-2
1.880939312E1,1.062775403E-2
1.881413724E1,1.051835716E-3
1.881888135E1,-1.319029182E-2
1.882362547E1,2.014391869E-2
1.882836958E1,5.714200437E-3
1.883311370E1,8.682608604E-4
1.883785781E1,-6.282173097E-3
1.884260192E1,1.038358361E-2
1.884734604E1,-3.937013447E-3
1.885209015E1,1.033702493E-2
1.885683427E1,-1.609824598E-3
1.886157833E1,-1.105552912E-2
1.886632244E1,-6.213925779E-3
1.887106656E1,1.042348146E-2
1.887581067E1,-6.297871470E-3
1.888055479E1,-3.896825016E-3
1.888529890E1,1.040465385E-2
1.889004302E1,1.744076610E-2
1.889478713E1,-6.429232657E-3
1.889953125E1,7.893815637E-3
1.890427536E1,1.020509005E-2
1.890901948E1,1.249709725E-2
1.891376359E1,5.278944969E-3
1.891850771E1,-4.252634943E-3
1.892325177E1,-8.987277746E-3
1.892799588E1,-1.131005585E-2
1.893274000E1,-1.118338853E-2
1.893748411E1,-6.340019405E-3
1.894222823E1,3.208510578E-3
1.894697234E1,8.125901222E-4
1.895171646E1,1.024430990E-2
1.895646057E1,3.072008491E-3
1.896120469E1,6.494447589E-4
1.896594880E1,-1.118820161E-2
1.897069291E1,7.892027497E-3
1.897543703E1,1.497709751E-2
1.898018114E1,5.904510617E-4
1.898492526E1,5.335450172E-3
1.898966937E1,1.006916910E-2
1.899441344E1,2.870321274E-3
1.899915755E1,2.849869430E-3
1.900390166E1,-9.091101587E-3
1.900864578E1,-1.892521977E-3
1.901338989E1,5.285516381E-4
1.901813401E1,-1.136435568E-2
1.902287812E1,2.943560481E-3
1.902762224E1,1.244273782E-2
1.903236635E1,1.946163923E-2
1.903711047E1,-9.199686348E-3
1.904185458E1,5.118206143E-3
1.904659870E1,-4.440523684E-3
1.905134281E1,1.221082360E-2
1.905608692E1,1.454214752E-2
1.906083099E1,-2.241775393E-3
1.906557510E1,2.554856241E-3
1.907031922E1,2.622246742E-3
1.907506333E1,9.751453996E-3
1.907980744E1,1.541152596E-4
1.908455156E1,-1.882629842E-2
1.908929567E1,-1.157554984E-2
1.909403979E1,-6.729856133E-3
1.909878390E1,3.923103213E-4
1.910352802E1,1.225738227E-2
1.910827213E1,7.441878319E-3
1.911301625E1,1.690358669E-2
1.911776036E1,2.444379032E-3
1.912250448E1,2.615676075E-2
1.912724854E1,-2.560585737E-3
1.913199265E1,6.956443191E-3
1.913673677E1,1.407755166E-2
1.914148088E1,-2.645529807E-3
1.914622500E1,-2.466663718E-4
1.915096911E1,-2.124309540E-4
1.915571323E1,-2.551369369E-3
1.916045734E1,1.173888892E-2
1.916520146E1,-1.917470247E-2
1.916994557E1,7.091201842E-3
1.917468968E1,-7.229253650E-3
1.917943380E1,-4.821158946E-3
1.918417786E1,-7.121920586E-3
1.918892198E1,4.833541811E-3
1.919366609E1,-2.321675420E-3
1.919841021E1,2.380330861E-2
1.920315432E1,2.280957997E-3
1.920789844E1,9.356044233E-3
1.921264255E1,-9.701050818E-3
1.921738666E1,-1.913652569E-2
1.922213078E1,7.100328803E-3
1.922687489E1,1.416350156E-2
1.923161901E1,-2.532526851E-3
1.923636312E1,2.237804234E-3
1.924110724E1,-2.551175654E-3
1.924585135E1,-1.676352322E-2
1.925059547E1,7.109165192E-3
1.925533953E1,-2.494648099E-3
1.926008364E1,-7.215693593E-3
1.926482776E1,4.712775350E-3
1.926957187E1,-2.468980849E-3
1.927431599E1,-1.430864632E-2
1.927906010E1,9.543344378E-3
