Time (s),Linear Acceleration x (m/s^2)
5.802070815E-2,1.927525504E-3
6.795770815E-2,-1.047555636E-2
7.789370837E-2,6.542531820E-3
8.783070836E-2,1.310025726E-2
9.776770836E-2,7.125385017E-3
1.077047084E-1,5.355894221E-3
1.176417083E-1,1.518836650E-2
1.275777083E-1,-4.329712442E-3
1.375147083E-1,1.052745954E-2
1.474517083E-1,-7.814301224E-3
1.573887083E-1,-3.289104486E-4
1.673257083E-1,7.380830683E-4
1.772617083E-1,1.317818055E-2
1.871987083E-1,1.058956793E-2
1.971357083E-1,2.262833628E-2
2.070727083E-1,3.959620236E-3
2.170097083E-1,1.604159403E-2
2.269457083E-1,7.318923287E-3
2.368827083E-1,1.628945659E-2
2.468197083E-1,9.369825041E-3
2.567567083E-1,1.833819305E-3
2.666937083E-1,1.222126544E-2
2.766297082E-1,4.138586149E-3
2.865667082E-1,2.045424557E-3
2.965037082E-1,4.150678008E-3
3.064407082E-1,1.578335267E-2
3.163777082E-1,1.034943466E-2
3.263137082E-1,-5.404480929E-3
3.362507082E-1,9.826944829E-3
3.461877082E-1,1.593274903E-3
3.561247082E-1,2.609994699E-2
3.660617082E-1,1.170872957E-2
3.759977082E-1,1.263761003E-2
3.859347082E-1,5.185082434E-3
3.958717082E-1,1.269483965E-2
4.058087082E-1,-6.803966314E-3
4.157447082E-1,6.788224513E-3
4.256817081E-1,8.812197098E-3
4.356187081E-1,-4.075746853E-3
4.455557081E-1,-1.080665038E-2
4.554927084E-1,1.504686845E-2
4.654297084E-1,1.768548389E-2
4.753657083E-1,-6.868783613E-3
4.853027083E-1,1.291844083E-2
4.952397083E-1,-7.225778969E-3
5.051767083E-1,4.444555412E-3
5.151127083E-1,7.910821396E-3
5.250497083E-1,1.561577969E-2
5.349867083E-1,1.244319925E-2
5.449237083E-1,9.030768760E-3
5.548607083E-1,4.749802910E-3
5.647967083E-1,-1.862022984E-3
5.747337083E-1,-1.865452284E-2
5.846707083E-1,-1.705906894E-3
5.946077083E-1,8.553677076E-3
6.045447083E-1,-2.759227976E-3
6.144807083E-1,-2.145274901E-3
6.244177083E-1,-7.600019043E-3
6.343547083E-1,4.973212229E-3
6.442917082E-1,1.646701095E-2
6.542287082E-1,-2.127897707E-3
6.641657082E-1,-1.120417425E-2
6.741017082E-1,5.768547761E-3
6.840387082E-1,1.027941882E-2
6.939757082E-1,-2.689764882E-4
7.039127082E-1,-2.551345755E-3
7.138487082E-1,5.893975105E-3
7.237857082E-1,-1.983000962E-3
7.337227082E-1,-3.250220502E-3
7.436597082E-1,7.465574197E-3
7.535967082E-1,1.363719155E-2
7.635327082E-1,1.247727298E-3
7.734697082E-1,3.306554770E-4
7.834067082E-1,-1.550903603E-2
7.933437082E-1,-4.777805591E-3
8.032807081E-1,2.034826479E-3
8.132167084E-1,4.984865547E-3
8.231537084E-1,-3.704887200E-3
8.330907084E-1,1.260038428E-3
8.430277084E-1,4.293802315E-3
8.529647083E-1,6.602598256E-3
8.629007083E-1,4.620332764E-3
8.728377083E-1,3.320793654E-3
8.827747083E-1,1.030928987E-2
8.927117083E-1,-1.515210005E-3
9.026487083E-1,9.885316486E-3
9.125847083E-1,-7.278490704E-3
9.225217083E-1,6.451150803E-3
9.324587083E-1,-6.211547437E-3
9.423957083E-1,3.886306202E-3
9.523327083E-1,1.001116410E-3
9.622687083E-1,-6.723841187E-5
9.722057083E-1,-5.564379436E-3
9.821427083E-1,3.095780918E-3
9.920797083E-1,1.269784549E-2
1.002016708E0,9.335897486E-3
1.011952708E0,-6.959063709E-3
1.021889708E0,1.298305257E-2
1.031826708E0,1.841292777E-3
1.041763708E0,1.400772686E-2
1.051700708E0,-6.751688551E-3
1.061636708E0,-2.033460606E-4
1.071573708E0,-7.644229475E-4
1.081510708E0,-5.292387977E-3
1.091447708E0,1.011596630E-2
1.101384708E0,1.004166098E-2
1.111320708E0,1.433548157E-2
1.121257708E0,1.438885569E-3
1.131194708E0,1.968969929E-2
1.141131708E0,-5.378981587E-3
1.151068708E0,-1.201831223E-2
1.161004708E0,1.633934522E-2
1.170941708E0,4.215472466E-3
1.180878708E0,-1.426854009E-2
1.190815708E0,-4.717190978E-3
1.200752708E0,-7.611293206E-3
1.210688708E0,1.518062807E-2
1.220625708E0,1.427022116E-2
1.230562708E0,3.092254773E-2
1.240499708E0,-4.294158630E-3
1.250435708E0,-1.129354529E-2
1.260372708E0,-8.502436280E-3
1.270309708E0,-1.677574393E-2
1.280246708E0,5.369041320E-3
1.290183708E0,5.399081390E-3
1.300119708E0,9.222260504E-3
1.310056708E0,1.056199009E-2
1.319993708E0,-1.084122204E-2
1.329930708E0,4.431033726E-3
1.339867708E0,9.703189423E-3
1.349803708E0,7.217359892E-3
1.359740708E0,2.747291434E-3
1.369677708E0,-2.196556809E-3
1.379614708E0,1.480071894E-3
1.389551708E0,-1.642946086E-2
1.399487708E0,1.160008100E-2
1.409424708E0,8.032955113E-3
1.419361708E0,-6.030164980E-3
1.429298708E0,-1.822952620E-2
1.439235708E0,-1.520780849E-2
1.449171708E0,-5.529035758E-3
1.459108708E0,-5.653060684E-3
1.469045708E0,-1.033313098E-2
1.478982708E0,-1.582234628E-2
1.488919708E0,-8.197878571E-3
1.498855708E0,5.811067983E-3
1.508792708E0,-3.894309578E-3
1.518729708E0,3.106196271E-3
1.528666708E0,1.202085669E-2
1.538603708E0,-1.575836952E-2
1.548539708E0,-1.212884288E-2
1.558476708E0,6.946277493E-3
1.568413708E0,1.030176615E-2
1.578350708E0,1.068575463E-2
1.588287708E0,4.625905892E-3
1.598223708E0,1.210181778E-3
1.608160708E0,-3.235515668E-3
1.618097708E0,2.184378156E-3
1.628034708E0,-1.200031377E-3
1.637971708E0,1.873420486E-3
1.647907708E0,-5.864547165E-3
1.657844708E0,4.166913168E-3
1.667781708E0,4.476468419E-3
1.677718708E0,-4.697369831E-4
1.687654708E0,-5.813370324E-3
1.697591708E0,2.630548119E-3
1.707528708E0,5.560176750E-3
1.717465708E0,2.304327846E-2
1.727402708E0,-1.491145515E-2
1.737338708E0,-1.774524883E-3
1.747275708E0,-7.626071130E-3
1.757212708E0,-1.408152969E-2
1.767149708E0,1.050790334E-2
1.777086708E0,5.130602829E-3
1.787022708E0,2.023000028E-2
1.796959708E0,-5.990216620E-3
1.806896708E0,7.690723976E-3
1.816833708E0,-4.238016224E-3
1.826770708E0,6.898357733E-3
1.836706708E0,1.729355142E-3
1.846643708E0,6.068861671E-4
1.856580708E0,-2.443047556E-2
1.866517708E0,-1.898019905E-3
1.876454708E0,-1.182261324E-3
1.886390708E0,-9.527672455E-4
1.896327708E0,-7.783292709E-3
1.906264708E0,-8.903532433E-3
1.916201708E0,5.373481549E-3
1.926138708E0,-4.772529393E-3
1.936074708E0,1.516137337E-3
1.946010958E0,3.157998947E-4
1.955947958E0,-8.837216785E-3
1.965884958E0,-5.262105796E-3
1.975820958E0,-3.455197387E-3
1.985757958E0,-4.527919348E-3
1.995694958E0,1.133459457E-2
2.005631958E0,-1.173241080E-2
2.015568958E0,1.112443285E-2
2.025504958E0,-4.109222163E-4
2.035441958E0,-3.151795417E-3
2.045378958E0,-1.323273324E-2
2.055315958E0,8.384126094E-3
2.065252958E0,1.362452410E-2
2.075188958E0,-2.855286766E-3
2.085125958E0,3.493743329E-3
2.095062958E0,-1.020335020E-2
2.104999958E0,-6.843800470E-4
2.114936958E0,-4.242835608E-3
2.124872958E0,2.449919404E-3
2.134809958E0,1.207405264E-2
2.144746958E0,3.520873496E-3
2.154683958E0,-7.548156981E-3
2.164620958E0,-1.015329712E-2
2.174556958E0,1.324009251E-2
2.184493958E0,1.885647562E-2
2.194430958E0,6.516561960E-3
2.204367958E0,-1.835166905E-3
2.214303958E0,-4.425579370E-3
2.224240958E0,-7.032099087E-3
2.234177958E0,-5.294525865E-3
2.244114958E0,3.071469292E-3
2.254051958E0,-2.917600726E-3
2.263987958E0,-7.991124680E-3
2.273924958E0,-5.274928557E-3
2.283861958E0,3.944728109E-3
2.293798958E0,-3.252979657E-3
2.303735958E0,-1.139600860E-2
2.313671958E0,1.716158251E-2
2.323608958E0,1.432662395E-2
2.333545958E0,7.267664219E-3
2.343482958E0,1.477405929E-2
2.353419958E0,-1.662844435E-2
2.363355958E0,5.235327375E-3
2.373292958E0,1.330194509E-2
2.383229958E0,-6.170758540E-3
2.393166958E0,-7.796257082E-4
2.403102958E0,-1.370372646E-3
2.413039958E0,-9.691463015E-3
2.422976958E0,-9.487016033E-4
2.432913958E0,-9.260418154E-3
2.442850958E0,1.207659710E-2
2.452786958E0,5.796692055E-3
2.462723958E0,8.935185056E-3
2.472660958E0,6.003838805E-3
2.482597958E0,-9.691385357E-3
2.492534958E0,2.717018388E-3
2.502470958E0,4.076820365E-3
2.512407958E0,6.521029598E-3
2.522344958E0,-2.199051012E-3
2.532281958E0,-7.221526033E-3
2.542217958E0,1.090178641E-2
2.552154958E0,-8.989737751E-3
2.562091958E0,-6.538694585E-3
2.572028958E0,1.352413472E-2
2.581965958E0,-1.499941464E-2
2.591901958E0,-1.330840901E-2
2.601838958E0,-1.664638342E-3
2.611775958E0,4.195692432E-3
2.621712958E0,-1.515741737E-2
2.631649958E0,2.602970274E-4
2.641585958E0,2.555173854E-3
2.651522958E0,6.313759508E-4
2.661459958E0,-1.149156033E-2
2.671396958E0,-1.084112611E-2
2.681333958E0,1.262485579E-2
2.691269958E0,3.539095796E-3
2.701206958E0,4.517115704E-3
2.711143958E0,1.405169518E-2
2.721080958E0,6.426743246E-3
2.731016958E0,1.489207712E-2
2.740953958E0,5.443620728E-3
2.750890958E0,-3.851716267E-4
2.760827958E0,2.303789263E-3
2.770764958E0,2.212611071E-2
2.780700958E0,-1.224610240E-2
2.790637958E0,-5.021127420E-3
2.800574958E0,3.548200093E-3
2.810511958E0,1.767933518E-2
2.820448958E0,1.564016897E-2
2.830384958E0,5.439267294E-3
2.840321958E0,2.088846529E-2
2.850258958E0,-1.039867918E-3
2.860195958E0,-1.432768833E-3
2.870131958E0,-3.675395306E-3
2.880068958E0,8.198161796E-3
2.890005958E0,-1.553678289E-3
2.899942958E0,5.472902488E-3
2.909879958E0,5.862564594E-4
2.919815958E0,-3.561941050E-3
2.929752958E0,-6.663719933E-3
2.939689958E0,-1.147714329E-2
2.949627500E0,-1.222875718E-2
2.959564500E0,4.245115109E-3
2.969500500E0,3.900969923E-3
2.979437500E0,1.279001679E-2
2.989374500E0,-2.026101337E-3
2.999311500E0,2.426666672E-2
3.009247500E0,-3.437705990E-4
3.019184500E0,7.042861618E-3
3.029121500E0,1.942741969E-3
3.039058500E0,3.471254390E-3
3.048995500E0,1.298140347E-2
3.058931500E0,6.853183424E-3
3.068868500E0,-1.268511409E-2
3.078805500E0,2.936855424E-3
3.088742500E0,1.756231321E-2
3.098679500E0,-6.607011077E-3
3.108615500E0,2.909250171E-3
3.118552500E0,2.098274707E-2
3.128489500E0,1.502711125E-2
3.138426500E0,2.048553731E-3
3.148362500E0,8.305695746E-4
3.158299500E0,2.396353427E-3
3.168236500E0,-1.083238726E-2
3.178173500E0,1.746957089E-2
3.188110500E0,2.012472756E-2
3.198046500E0,1.035552399E-2
3.207983500E0,-1.097210831E-2
3.217920500E0,-5.697207162E-3
3.227857500E0,-4.802240557E-3
3.237793500E0,4.794182363E-3
3.247730500E0,-5.573826344E-3
3.257667500E0,-1.082829421E-2
3.267604500E0,-7.205336555E-3
3.277541500E0,1.177845305E-2
3.287477500E0,3.838304216E-3
3.297414500E0,9.211543654E-3
3.307351500E0,-6.176098692E-3
3.317288500E0,1.276211004E-2
3.327225500E0,1.628668373E-2
3.337161500E0,1.991785490E-3
3.347098500E0,1.471419842E-3
3.357035500E0,-3.248744993E-3
3.366972500E0,9.398663691E-3
3.376908500E0,7.498012539E-3
3.386845500E0,7.658737879E-3
3.396782500E0,5.418952787E-3
3.406719500E0,-2.538312860E-3
3.416656500E0,5.384664349E-3
3.426592500E0,-1.097346505E-2
3.436529500E0,-1.348371127E-2
3.446466500E0,1.668795804E-2
3.456403500E0,1.269011163E-2
3.466339500E0,8.884296007E-3
3.476276500E0,-1.682828665E-3
3.486213500E0,-9.296638914E-3
3.496150500E0,2.759004137E-3
3.506087500E0,-4.862521696E-3
3.516023500E0,1.506568460E-2
3.525960500E0,-1.834614160E-3
3.535897500E0,-9.543432528E-4
3.545834500E0,1.580934080E-2
3.555771500E0,1.061711380E-2
3.565707500E0,9.752045651E-3
3.575644500E0,4.532464645E-3
3.585581500E0,3.893519291E-3
3.595518500E0,8.450021474E-3
3.605454500E0,-2.110885964E-3
3.615391500E0,-4.910925678E-3
3.625328500E0,7.727456368E-3
3.635265500E0,1.808286158E-2
3.645202500E0,-7.223321311E-4
3.655138500E0,2.552168020E-3
3.665075500E0,-9.230780080E-3
3.675012500E0,-2.594007589E-3
3.684949500E0,-1.060104766E-3
3.694885500E0,2.100740131E-2
3.704822500E0,3.376739630E-3
3.714759500E0,1.550928270E-4
3.724696500E0,-4.879538007E-3
3.734633500E0,-4.605267048E-3
3.744569500E0,1.154792201E-2
3.754506500E0,6.102620205E-3
3.764443500E0,-1.212995751E-2
3.774380500E0,2.255280213E-3
3.784316500E0,-3.141325247E-4
3.794253500E0,-9.524095603E-3
3.804190500E0,1.136958193E-2
3.814127500E0,4.106618324E-3
3.824064500E0,2.859422300E-2
3.834000500E0,3.491664827E-3
3.843937500E0,-2.990453378E-3
3.853874500E0,2.169563686E-3
3.863811500E0,1.248374146E-2
3.873747500E0,-1.821677196E-3
3.883684500E0,-1.108144667E-2
3.893621500E0,-4.963737912E-4
3.903558500E0,-1.831425601E-3
3.913495500E0,1.099406735E-2
3.923431500E0,-4.532921459E-3
3.933368500E0,-7.755303732E-3
3.943305500E0,1.927636509E-2
3.953242125E0,-7.953460389E-3
3.963179125E0,1.145267178E-2
3.973115125E0,6.636589766E-3
3.983052125E0,6.132614594E-3
3.992989125E0,-1.969538662E-3
4.002926125E0,5.896999212E-3
4.012862125E0,-4.400989087E-3
4.022799125E0,9.230300426E-3
4.032736125E0,9.481963674E-3
4.042673125E0,-2.671903465E-3
4.052610125E0,-4.276543893E-3
4.062546125E0,3.021950684E-3
4.072483125E0,9.392967224E-3
4.082420125E0,7.418426452E-4
4.092357125E0,2.012898050E-2
4.102293125E0,4.220492849E-3
4.112230125E0,-7.921684426E-3
4.122167125E0,1.382743162E-2
4.132104125E0,5.049015898E-3
4.142041125E0,-5.537971035E-3
4.151977125E0,2.667618552E-3
4.161914125E0,-7.246189406E-3
4.171851125E0,-7.086281762E-3
4.181788125E0,1.478698255E-2
4.191724125E0,7.731686463E-3
4.201661125E0,-6.546327942E-3
4.211598125E0,-1.706240368E-3
4.221535125E0,8.765396532E-3
4.231471125E0,-5.854401332E-3
4.241408125E0,7.780894437E-3
4.251345125E0,-6.818931531E-3
4.261282125E0,1.071757627E-2
4.271219125E0,8.825138630E-3
4.281155125E0,1.419283692E-3
4.291092125E0,8.686783458E-3
4.301029125E0,8.415431539E-3
4.310966125E0,1.662257886E-2
4.320903125E0,-8.888690555E-3
4.330839125E0,-1.129794440E-2
4.340776125E0,1.865865244E-2
4.350713125E0,2.759712199E-3
4.360650125E0,-9.277429897E-5
4.370586125E0,-3.524180828E-4
4.380523125E0,1.608914834E-2
4.390460125E0,-1.906411573E-3
4.400397125E0,-2.040367629E-3
4.410333125E0,2.137419075E-2
4.420270125E0,3.599312981E-3
4.430207125E0,2.051654126E-2
4.440144125E0,1.979439185E-2
4.450081125E0,1.222034267E-2
4.460017125E0,5.780721847E-3
4.469954125E0,-5.640406944E-3
4.479891125E0,4.190005101E-3
4.489828125E0,-2.697644918E-3
4.499764125E0,1.816813043E-2
4.509701125E0,-3.954366879E-3
4.519638125E0,1.002263469E-2
4.529575125E0,1.587455096E-3
4.539512125E0,1.795880925E-2
4.549448125E0,2.601033384E-3
4.559385125E0,-4.960531080E-3
4.569322125E0,8.266126541E-3
4.579259125E0,4.731443566E-3
4.589195125E0,-1.297109775E-2
4.599132125E0,-1.213083002E-2
4.609069125E0,1.672528886E-2
4.619006125E0,9.366979091E-3
4.628943125E0,-2.368369019E-3
4.638879125E0,2.309997361E-3
4.648816125E0,1.567773733E-2
4.658753125E0,2.284471524E-2
4.668690125E0,5.162104703E-3
4.678626125E0,-7.466168054E-3
4.688563125E0,-2.417248087E-3
4.698500125E0,4.844422736E-3
4.708437125E0,1.903999597E-2
4.718374125E0,1.992791394E-2
4.728310125E0,1.251522050E-2
4.738247125E0,-3.842854081E-4
4.748184125E0,-1.567816674E-3
4.758121125E0,9.733901010E-3
4.768057125E0,3.503167396E-3
4.777994125E0,8.448111992E-3
4.787931125E0,1.029612450E-4
4.797868125E0,6.755576036E-3
4.807804125E0,1.397539359E-2
4.817741125E0,1.278759111E-2
4.827678125E0,-1.751099476E-3
4.837615125E0,-1.381993988E-2
4.847552125E0,6.063160636E-3
4.857488125E0,1.505457032E-2
4.867425125E0,-4.814999364E-4
4.877362125E0,-6.649033371E-3
4.887299125E0,6.858386532E-3
4.897235125E0,8.819583775E-3
4.907172125E0,5.799053782E-3
4.917109125E0,5.864099488E-3
4.927046125E0,9.076797310E-3
4.936983125E0,-7.136896723E-3
4.946919583E0,9.545579553E-5
4.956856583E0,-1.025117403E-3
4.966793583E0,9.151495490E-3
4.976730583E0,6.801225431E-3
4.986666583E0,1.681698508E-2
4.996603583E0,2.735530308E-2
5.006540583E0,1.670086303E-2
5.016477583E0,1.268489939E-2
5.026414583E0,-1.066505183E-2
5.036350583E0,8.518639463E-3
5.046287583E0,-5.796020539E-3
5.056224583E0,-1.341584702E-2
5.066161583E0,2.062742366E-3
5.076097583E0,-2.615523515E-3
5.086034583E0,2.241393533E-2
5.095971583E0,1.083044124E-2
5.105908583E0,7.355797291E-3
5.115844583E0,1.071068295E-3
5.125781583E0,-3.954042541E-4
5.135718583E0,-1.278470862E-3
5.145655583E0,4.613599330E-3
5.155591583E0,1.579186767E-3
5.165528583E0,-4.743042067E-3
5.175465583E0,-1.223982121E-3
5.185402583E0,1.849331785E-2
5.195339583E0,1.049947056E-2
5.205275583E0,6.174001917E-3
5.215212583E0,1.386403154E-2
5.225149583E0,-3.319916571E-3
5.235086583E0,-8.803928769E-3
5.245022583E0,1.273355918E-2
5.254959583E0,9.905407154E-3
5.264896583E0,-4.031604943E-3
5.274833583E0,5.494774729E-3
5.284770583E0,-2.253160598E-3
5.294706583E0,1.152838865E-2
5.304643583E0,-1.364712724E-3
5.314580583E0,4.289480858E-6
5.324517583E0,4.363877540E-3
5.334453583E0,-3.978253668E-4
5.344390583E0,1.647494580E-2
5.354327583E0,-2.251771884E-4
5.364264583E0,-9.345038328E-4
5.374200583E0,1.209145725E-2
5.384137583E0,2.419221522E-3
5.394074583E0,-8.416290348E-4
5.404011583E0,6.703188638E-3
5.413948583E0,1.141646472E-2
5.423884583E0,8.913792470E-3
5.433821583E0,-4.062951501E-3
5.443758583E0,-4.321380160E-3
5.453695583E0,1.442107019E-2
5.463631583E0,5.265897349E-3
5.473568583E0,-5.397665268E-3
5.483505583E0,-4.151153094E-3
5.493442583E0,1.812664718E-2
5.503378583E0,-3.670087131E-3
5.513315583E0,9.863384860E-4
5.523252583E0,1.316732666E-2
5.533189583E0,2.014608817E-2
5.543125583E0,-4.730717232E-3
5.553062583E0,1.714397234E-2
5.562999583E0,1.852770679E-2
5.572936583E0,2.978507699E-3
5.582873583E0,1.072262863E-2
5.592809583E0,1.453959508E-2
5.602746583E0,1.365132993E-3
5.612683583E0,-1.772432677E-3
5.622620583E0,-1.024064447E-2
5.632556583E0,7.770684650E-3
5.642493583E0,-1.603534939E-3
5.652430583E0,5.872934265E-3
5.662367583E0,4.387823716E-3
5.672303583E0,-1.105046100E-3
5.682240583E0,1.894222413E-2
5.692177583E0,1.859983767E-2
5.702114583E0,1.105566868E-3
5.712051583E0,-8.150168946E-3
5.721987583E0,1.702057325E-2
5.731924583E0,-7.062134589E-3
5.741861583E0,-4.648993257E-3
5.751798583E0,-9.745709645E-3
5.761734583E0,2.079315567E-3
5.771671583E0,1.028604262E-2
5.781608583E0,-9.931852100E-3
5.791545583E0,-5.981034664E-3
5.801481583E0,6.035171659E-3
5.811418583E0,2.783288355E-3
5.821355583E0,2.530067372E-3
5.831292583E0,-7.046940965E-3
5.841228583E0,2.613111539E-3
5.851165583E0,-5.887652803E-3
5.861102583E0,1.074292487E-2
5.871039583E0,7.712532263E-3
5.880976583E0,6.168291746E-3
5.890912583E0,9.202695172E-4
5.900849583E0,-5.022776518E-3
5.910786583E0,1.793036346E-2
5.920723583E0,1.430122968E-2
5.930659583E0,-3.568372987E-3
5.940596583E0,4.759560451E-3
5.950533250E0,1.241977841E-2
5.960470250E0,1.198194986E-2
5.970406250E0,1.427146826E-2
5.980343250E0,1.318036869E-2
5.990280250E0,1.133333376E-2
6.000217250E0,-7.467442565E-3
6.010154250E0,-1.846098457E-3
6.020090250E0,1.385538405E-2
6.030027250E0,-2.855542582E-5
6.039964250E0,-1.334026263E-2
6.049901250E0,4.879752710E-3
6.059837250E0,-1.168556912E-3
6.069774250E0,2.011871133E-2
6.079711250E0,1.043164743E-2
6.089648250E0,1.232298415E-2
6.099584250E0,-7.181116291E-3
6.109521250E0,-1.842475925E-2
6.119458250E0,4.369551167E-3
6.129395250E0,1.081255241E-3
6.139331250E0,-9.155469770E-3
6.149268250E0,-7.329512229E-3
6.159205250E0,4.626997677E-3
6.169142250E0,1.094044655E-2
6.179078250E0,-5.451007406E-3
6.189015250E0,-7.891246928E-3
6.198952250E0,-3.451593127E-3
6.208889250E0,3.994927369E-3
6.218826250E0,7.422455549E-3
6.228762250E0,-8.062236873E-3
6.238699250E0,-9.250537273E-3
6.248636250E0,1.180454625E-2
6.258573250E0,-1.145106836E-2
6.268509250E0,-5.258364491E-3
6.278446250E0,1.925022621E-2
6.288383250E0,1.226649913E-3
6.298320250E0,-1.463516965E-3
6.308256250E0,2.342933631E-3
6.318193250E0,-9.744626996E-3
6.328130250E0,-4.490524577E-4
6.338067250E0,7.676370889E-3
6.348003250E0,8.502883958E-3
6.357940250E0,9.357943316E-3
6.367877250E0,6.737454236E-3
6.377814250E0,5.403676936E-3
6.387751250E0,1.147260256E-3
6.397687250E0,2.203070973E-3
6.407624250E0,1.152899622E-2
6.417561250E0,1.554392746E-2
6.427498250E0,3.236680543E-3
6.437434250E0,1.301214703E-2
6.447371250E0,9.714966081E-3
6.457308250E0,-4.979895414E-3
6.467245250E0,-1.294326866E-3
6.477181250E0,1.108605593E-2
6.487118250E0,2.353372281E-2
6.497055250E0,2.050327082E-2
6.506992250E0,1.231240891E-2
6.516928250E0,-1.585803714E-2
6.526865250E0,8.336188062E-3
6.536802250E0,4.020741913E-3
6.546739250E0,6.725545102E-3
6.556675250E0,5.191450417E-3
6.566612250E0,6.573261679E-3
6.576549250E0,6.035231045E-3
6.586486250E0,5.894728848E-3
6.596422250E0,2.182577853E-2
6.606359250E0,3.330003018E-3
6.616296250E0,1.713334685E-2
6.626233250E0,-9.057062957E-4
6.636170250E0,-1.094251592E-4
6.646106250E0,5.671255575E-3
6.656043250E0,1.666595332E-2
6.665980250E0,-1.428607260E-3
6.675917250E0,2.961354344E-3
6.685853250E0,1.348157795E-3
6.695790250E0,9.902282548E-3
6.705727250E0,-3.138566092E-3
6.715664250E0,1.759098284E-4
6.725600250E0,-2.702829754E-3
6.735537250E0,-4.787576837E-3
6.745474250E0,9.980164720E-3
6.755411250E0,-3.821379268E-3
6.765347250E0,3.518785858E-3
6.775284250E0,5.084418962E-3
6.785221250E0,3.289200417E-3
6.795158250E0,1.402665265E-2
6.805094250E0,1.436805239E-2
6.815031250E0,2.206364600E-4
6.824968250E0,-9.506978793E-4
6.834905250E0,-2.794599063E-3
6.844841250E0,1.472906771E-2
6.854778250E0,4.619958177E-3
6.864715250E0,-1.703213977E-2
6.874652250E0,1.877557391E-2
6.884589250E0,1.645663214E-2
6.894525250E0,1.117789376E-2
6.904462250E0,1.702477137E-2
6.914399250E0,9.835267975E-3
6.924336250E0,-9.435793511E-3
6.934272250E0,-4.524424723E-3
6.944209250E0,4.339378620E-3
6.954145625E0,2.624513609E-3
6.964082625E0,-9.981471207E-4
6.974018625E0,-5.460171090E-3
6.983955625E0,8.206325057E-3
6.993892625E0,-6.247512382E-3
7.003829625E0,-2.552716197E-3
7.013765625E0,-3.803750826E-3
7.023702625E0,-1.630280925E-2
7.033639625E0,-1.422472252E-2
7.043576625E0,1.797904610E-3
7.053512625E0,2.689719200E-3
7.063449625E0,-5.512946779E-3
7.073386625E0,1.516982443E-2
7.083323625E0,3.053000313E-3
7.093259625E0,1.278534816E-3
7.103196625E0,5.408829795E-3
7.113133625E0,6.802139059E-3
7.123070625E0,1.976554864E-2
7.133007625E0,3.327723518E-3
7.142943625E0,6.131289834E-3
7.152880625E0,9.614585834E-3
7.162817625E0,4.833797249E-3
7.172754625E0,-3.902084548E-3
7.182690625E0,-6.852525612E-4
7.192627625E0,5.140639027E-3
7.202564625E0,-9.760697703E-3
7.212501625E0,5.973661691E-3
7.222437625E0,7.614806104E-3
7.232374625E0,1.208579733E-2
7.242311625E0,6.469395943E-4
7.252248625E0,3.032745193E-3
7.262184625E0,-3.505314421E-4
7.272121625E0,-4.499062425E-3
7.282058625E0,-1.194659248E-4
7.291995625E0,5.543018826E-3
7.301931625E0,-6.246137372E-3
7.311868625E0,1.333011679E-2
7.321805625E0,5.652686097E-3
7.331742625E0,1.079165319E-2
7.341678625E0,-5.569509454E-3
7.351615625E0,1.024535422E-2
7.361552625E0,-3.609879082E-4
7.371489625E0,3.980884915E-3
7.381425625E0,3.618033207E-3
7.391362625E0,1.023593929E-2
7.401299625E0,2.341879304E-2
7.411236625E0,9.224366415E-3
7.421172625E0,-1.446228392E-2
7.431109625E0,-6.470487728E-3
7.441046625E0,1.760757431E-2
7.450983625E0,-5.518533611E-3
7.460919625E0,1.704719178E-3
7.470856625E0,6.973663475E-3
7.480793625E0,2.315278128E-3
7.490730625E0,8.212656495E-3
7.500667625E0,-2.183121918E-3
7.510603625E0,-9.031504230E-3
7.520540625E0,1.311521335E-3
7.530477625E0,1.672158410E-2
7.540414625E0,-2.070238679E-3
7.550350625E0,4.200319955E-3
7.560287625E0,6.384483408E-3
7.570224625E0,1.937997045E-2
7.580161625E0,1.664015248E-2
7.590097625E0,8.592588468E-3
7.600034625E0,-4.488021238E-3
7.609971625E0,5.176370996E-3
7.619908625E0,1.323631466E-3
7.629844625E0,4.567621029E-3
7.639781625E0,7.720503663E-3
7.649718625E0,5.829372508E-3
7.659655625E0,-1.205328589E-2
7.669591625E0,-1.297655668E-2
7.679528625E0,-2.456456409E-3
7.689465625E0,-4.924525023E-3
7.699402625E0,1.342859670E-2
7.709338625E0,-1.384062897E-2
7.719275625E0,9.425213705E-3
7.729212625E0,-2.119368995E-3
7.739149625E0,1.158936415E-4
7.749085625E0,1.861333195E-4
7.759022625E0,-6.874626260E-3
7.768959625E0,9.772314476E-3
7.778896625E0,1.491803327E-2
7.788832625E0,3.084356007E-3
7.798769625E0,3.456544988E-3
7.808706625E0,6.329423650E-3
7.818643625E0,-7.460850743E-3
7.828580625E0,1.018651661E-2
7.838516625E0,1.616192790E-2
7.848453625E0,-1.096284413E-3
7.858390625E0,2.609411348E-4
7.868327625E0,5.194716635E-3
7.878263625E0,-1.403523618E-3
7.888200625E0,5.092312703E-3
7.898137625E0,1.204649764E-3
7.908074625E0,-1.100777633E-2
7.918010625E0,7.470644829E-3
7.927947625E0,9.686045204E-3
7.937884625E0,8.305741427E-4
7.947821625E0,4.997350266E-3
7.957758083E0,1.573441878E-2
7.967695083E0,8.571817148E-3
7.977632083E0,9.105119761E-4
7.987569083E0,1.384578640E-2
7.997505083E0,1.272605374E-2
8.007442083E0,1.517471690E-2
8.017379083E0,3.193109650E-3
8.027316083E0,1.070984698E-2
8.037252083E0,9.304802176E-3
8.047189083E0,1.348096582E-2
8.057126083E0,6.781239831E-3
8.067063083E0,3.605169333E-3
8.076999083E0,7.301313118E-3
8.086936083E0,4.259084472E-3
8.096873083E0,1.214075202E-2
8.106810083E0,8.780224705E-3
8.116746083E0,-5.878776913E-3
8.126683083E0,6.106229033E-4
8.136620083E0,3.545993683E-3
8.146557083E0,8.898964296E-3
8.156493083E0,1.009651517E-2
8.166430083E0,-8.457727921E-3
8.176367083E0,4.278129037E-3
8.186304083E0,1.030982891E-3
8.196241083E0,-2.286220207E-3
8.206177083E0,-8.735648822E-4
8.216114083E0,1.081436140E-2
8.226051083E0,2.384074274E-3
8.235988083E0,-6.850903924E-3
8.245924083E0,-3.075767909E-3
8.255861083E0,-6.439058944E-3
8.265798083E0,1.178165532E-2
8.275735083E0,-3.878960637E-3
8.285671083E0,1.280643468E-2
8.295608083E0,-9.036816973E-3
8.305545083E0,-8.334328830E-3
8.315482083E0,6.801992878E-3
8.325418083E0,6.064183898E-3
8.335355083E0,-2.738497769E-3
8.345292083E0,7.142045014E-3
8.355229083E0,3.914002818E-3
8.365165083E0,1.955460120E-2
8.375102083E0,3.852392351E-3
8.385039083E0,8.376913005E-4
8.394976083E0,-1.001760974E-2
8.404912083E0,4.945926745E-3
8.414849083E0,8.657049453E-3
8.424786083E0,1.266141003E-2
8.434723083E0,1.696523027E-2
8.444659083E0,-2.719823224E-4
8.454596083E0,-1.698707510E-4
8.464533083E0,1.299244009E-2
8.474470083E0,-1.299155387E-2
8.484406083E0,-3.572863466E-3
8.494343083E0,6.792463744E-3
8.504280083E0,5.644390360E-4
8.514217083E0,3.404093636E-3
8.524153083E0,5.248693745E-3
8.534090083E0,-8.184434543E-3
8.544027083E0,-2.575908629E-3
8.553964083E0,2.726638885E-3
8.563900083E0,-2.249035570E-3
8.573837083E0,-9.423235701E-3
8.583774083E0,-5.955539891E-3
8.593711083E0,-5.277737961E-3
8.603647083E0,8.292882121E-3
8.613584083E0,6.569228014E-3
8.623521083E0,-1.082414178E-2
8.633458083E0,-5.114066172E-3
8.643395083E0,9.449255811E-3
8.653331083E0,4.718835508E-3
8.663268083E0,1.754748047E-2
8.673205083E0,6.946642944E-3
8.683142083E0,7.113032774E-3
8.693078083E0,-6.052343287E-3
8.703015083E0,7.106121182E-3
8.712952083E0,1.059852148E-2
8.722889083E0,-4.531861651E-3
8.732825083E0,1.050036591E-3
8.742762083E0,3.863255382E-3
8.752699083E0,-7.007842278E-4
8.762636083E0,1.403605845E-4
8.772572083E0,-8.946267357E-3
8.782509083E0,1.166017028E-4
8.792446083E0,2.276969729E-3
8.802383083E0,8.122983961E-3
8.812319083E0,-3.693128815E-3
8.822256083E0,-3.258251287E-3
8.832193083E0,3.896292150E-3
8.842130083E0,6.823901664E-3
8.852066083E0,-4.060023325E-3
8.862003083E0,-8.855082770E-3
8.871940083E0,3.077046988E-3
8.881877083E0,2.785206973E-2
8.891813083E0,5.545225237E-3
8.901750083E0,-7.330535492E-3
8.911687083E0,-9.301686706E-3
8.921624083E0,1.663087460E-2
8.931560083E0,5.861066245E-3
8.941497083E0,1.568158827E-2
8.951434250E0,4.809695757E-3
8.961371250E0,5.296650049E-3
8.971307250E0,-2.538929558E-3
8.981244250E0,-4.711380308E-3
8.991181250E0,-2.925384832E-3
9.001118250E0,-1.173325134E-2
9.011054250E0,1.571411798E-3
9.020991250E0,-4.518020195E-3
9.030928250E0,4.552632971E-3
9.040865250E0,1.402506294E-2
9.050801250E0,1.708369120E-3
9.060738250E0,4.581457917E-3
9.070675250E0,-4.806973147E-3
9.080612250E0,5.872824630E-3
9.090548250E0,1.646344323E-2
9.100485250E0,-3.858326362E-3
9.110422250E0,-4.186382568E-3
9.120359250E0,6.696048640E-3
9.130295250E0,6.133765765E-3
9.140232250E0,9.127380294E-3
9.150169250E0,3.094140957E-3
9.160106250E0,8.660206036E-3
9.170042250E0,1.002728506E-2
9.179979250E0,9.399335207E-3
9.189916250E0,-4.337176778E-3
9.199853250E0,-1.300138450E-2
9.209790250E0,-3.345000213E-3
9.219726250E0,8.439459940E-3
9.229663250E0,6.233684630E-3
9.239600250E0,2.132771909E-4
9.249537250E0,1.156011437E-2
9.259473250E0,4.357102993E-3
9.269410250E0,6.754114232E-3
9.279347250E0,1.916205660E-3
9.289283250E0,-9.689521557E-4
9.299220250E0,1.189153729E-2
9.309157250E0,1.752316427E-2
9.319094250E0,1.129837381E-4
9.329031250E0,-7.966324263E-3
9.338967250E0,3.828971512E-3
9.348904250E0,-2.212166134E-4
9.358841250E0,2.437472601E-2
9.368778250E0,1.126664353E-2
9.378714250E0,-3.200711031E-3
9.388651250E0,1.254431040E-2
9.398588250E0,-6.637375485E-3
9.408525250E0,-5.987868598E-4
9.418461250E0,-2.784028393E-3
9.428398250E0,-6.598176300E-3
9.438335250E0,-2.902037082E-3
9.448272250E0,-1.403601277E-3
9.458208250E0,4.400477456E-3
9.468145250E0,1.289038790E-2
9.478082250E0,-2.562565100E-3
9.488019250E0,1.978526015E-2
9.497955250E0,9.315614956E-3
9.507892250E0,1.676815626E-2
9.517829250E0,9.333129195E-3
9.527766250E0,1.167060847E-2
9.537702250E0,1.490346091E-2
9.547639250E0,1.288760591E-2
9.557576250E0,2.452696832E-3
9.567513250E0,1.148372141E-2
9.577449250E0,-2.294776328E-3
9.587386250E0,8.192757689E-3
9.597323250E0,4.828836252E-3
9.607260250E0,5.634098346E-3
9.617196250E0,-9.347016332E-3
9.627133250E0,1.203774052E-2
9.637070250E0,5.448631975E-3
9.647007250E0,-9.714678288E-3
9.656943250E0,4.139508912E-3
9.666880250E0,8.309857319E-3
9.676817250E0,-1.134195384E-3
9.686754250E0,-1.804236048E-3
9.696690250E0,-4.892379041E-3
9.706627250E0,-5.876702978E-3
9.716564250E0,-1.394796649E-2
9.726501250E0,1.180789013E-2
9.736437250E0,9.990525255E-3
9.746374250E0,2.232275074E-3
9.756311250E0,-4.955382789E-3
9.766248250E0,2.020310766E-2
9.776184250E0,-2.943616267E-4
9.786121250E0,4.188068211E-4
9.796058250E0,1.003286275E-2
9.805995250E0,1.715603679E-2
9.815931250E0,1.229007072E-3
9.825868250E0,-1.416468349E-2
9.835805250E0,-1.100363759E-3
9.845742250E0,-9.879738791E-3
9.855678250E0,-1.170629933E-2
9.865615250E0,7.019399665E-4
9.875552250E0,1.599223531E-2
9.885489250E0,-5.850687437E-4
9.895425250E0,1.246927417E-2
9.905362250E0,2.474173015E-2
9.915299250E0,2.437343323E-3
9.925236250E0,-1.429776246E-2
9.935172250E0,5.983812092E-3
9.945109250E0,-3.089243914E-3
9.955046125E0,1.456792210E-2
9.964983125E0,1.134270301E-2
9.974919125E0,1.541782860E-2
9.984856125E0,1.660362566E-3
9.994793125E0,1.033689969E-2
1.000473012E1,-4.204376461E-4
1.001466612E1,5.621079155E-3
1.002460312E1,7.906929343E-3
1.003454012E1,8.212916879E-3
1.004447712E1,1.112325427E-2
1.005441312E1,3.155212384E-4
1.006435012E1,-7.240767027E-3
1.007428712E1,2.014667289E-2
1.008422412E1,-8.096429380E-3
1.009416012E1,9.594769254E-3
1.010409712E1,1.137359275E-2
1.011403412E1,7.346925968E-3
1.012397112E1,1.442677123E-3
1.013390712E1,-3.099038000E-3
1.014384412E1,3.610185147E-3
1.015378112E1,-1.100939801E-2
1.016371812E1,-1.377727347E-3
1.017365412E1,8.424937832E-3
1.018359112E1,1.904351343E-3
1.019352812E1,6.542212050E-3
1.020346512E1,-9.541714909E-3
1.021340112E1,2.080736258E-3
1.022333812E1,7.298983368E-3
1.023327513E1,1.050645981E-2
1.024321213E1,-3.954380583E-3
1.025314813E1,2.027467210E-3
1.026308513E1,-1.178412668E-2
1.027302213E1,-1.052639973E-2
1.028295913E1,1.341671497E-2
1.029289512E1,-6.856271485E-4
1.030283212E1,4.594367472E-3
1.031276912E1,3.332341905E-3
1.032270612E1,-1.060659338E-2
1.033264212E1,1.428106592E-2
1.034257912E1,2.370086638E-3
1.035251612E1,-6.754073119E-3
1.036245312E1,1.097351986E-2
1.037238912E1,7.224326301E-4
1.038232612E1,-2.192181448E-2
1.039226312E1,1.919750534E-3
1.040220012E1,-7.648263141E-3
1.041213612E1,-5.198448803E-4
1.042207312E1,1.748640904E-2
1.043201012E1,1.813404756E-2
1.044194712E1,-3.535500672E-3
1.045188312E1,-6.287812488E-4
1.046182012E1,-3.841428822E-3
1.047175712E1,2.843331951E-3
1.048169412E1,1.115018344E-3
1.049163012E1,8.784939023E-3
1.050156712E1,7.971710097E-3
1.051150412E1,-6.998573528E-3
1.052144112E1,-8.384952927E-4
1.053137712E1,-6.776849851E-3
1.054131412E1,-1.447848254E-3
1.055125112E1,4.321001004E-5
1.056118812E1,5.444584605E-3
1.057112412E1,3.644318269E-3
1.058106113E1,3.547126581E-3
1.059099813E1,-3.059395705E-3
1.060093513E1,-9.819051088E-3
1.061087113E1,1.415578933E-3
1.062080813E1,2.126688978E-2
1.063074513E1,-1.992964069E-3
1.064068112E1,-6.249568043E-3
1.065061812E1,7.352613299E-3
1.066055512E1,5.677034268E-3
1.067049212E1,-1.617113727E-2
1.068042812E1,3.532631882E-4
1.069036512E1,5.320372386E-4
1.070030212E1,-3.294988247E-3
1.071023912E1,-4.062869274E-3
1.072017512E1,7.644092431E-3
1.073011212E1,-4.203065406E-3
1.074004912E1,-2.150331829E-3
1.074998612E1,2.949098032E-4
1.075992212E1,6.133811446E-3
1.076985912E1,-1.846377114E-3
1.077979612E1,-4.269856140E-3
1.078973312E1,1.586446908E-2
1.079966912E1,-5.492650545E-3
1.080960612E1,3.040712024E-3
1.081954312E1,-7.585720774E-3
1.082948012E1,9.356253105E-3
1.083941612E1,6.174152666E-3
1.084935312E1,-8.247534223E-3
1.085929012E1,1.122972384E-2
1.086922712E1,-4.648527307E-3
1.087916312E1,2.237998950E-3
1.088910012E1,-1.081466746E-2
1.089903712E1,1.880597030E-3
1.090897412E1,-6.673025228E-3
1.091891012E1,-1.094425181E-3
1.092884713E1,1.198729458E-2
1.093878413E1,-4.019184178E-3
1.094872113E1,4.643607424E-3
1.095865746E1,1.098252823E-2
1.096859446E1,1.530161519E-3
1.097853146E1,3.104734467E-4
1.098846846E1,6.790033495E-4
1.099840446E1,1.011382385E-2
1.100834146E1,8.776981328E-3
1.101827846E1,-1.680358216E-2
1.102821546E1,1.717295260E-3
1.103815146E1,7.388231065E-3
1.104808846E1,2.163273362E-3
1.105802546E1,-1.637069634E-3
1.106796246E1,-5.160396220E-4
1.107789846E1,6.686994592E-3
1.108783546E1,2.158307796E-3
1.109777246E1,3.496315191E-3
1.110770846E1,1.655904064E-3
1.111764546E1,-1.360097079E-2
1.112758246E1,1.283807360E-2
1.113751946E1,-8.287235904E-3
1.114745546E1,1.112842083E-2
1.115739246E1,-2.578603830E-3
1.116732946E1,1.596253328E-3
1.117726646E1,1.279928098E-3
1.118720246E1,5.046969373E-4
1.119713946E1,5.804101573E-3
1.120707646E1,1.283310346E-2
1.121701346E1,-1.395060687E-2
1.122694946E1,-1.684349854E-3
1.123688646E1,-3.553261589E-3
1.124682346E1,5.249036355E-3
1.125676046E1,1.563723623E-3
1.126669646E1,-6.920828400E-3
1.127663346E1,-7.671775343E-4
1.128657046E1,9.192837132E-3
1.129650746E1,1.084590438E-2
1.130644346E1,2.507756590E-3
1.131638046E1,1.236704383E-3
1.132631746E1,8.944650237E-3
1.133625446E1,8.532426101E-3
1.134619046E1,-7.504316568E-3
1.135612746E1,-2.728457004E-4
1.136606446E1,-6.995535716E-3
1.137600146E1,-2.079388658E-3
1.138593746E1,1.050326211E-2
1.139587446E1,1.986285453E-3
1.140581146E1,6.154925376E-3
1.141574846E1,3.648639726E-3
1.142568446E1,-5.711176526E-4
1.143562146E1,4.184358884E-3
1.144555846E1,-9.908010992E-3
1.145549446E1,-1.690950813E-3
1.146543146E1,-3.860016572E-3
1.147536846E1,1.394245275E-2
1.148530546E1,7.977977581E-3
1.149524146E1,-5.876150234E-3
1.150517846E1,1.664925221E-2
1.151511546E1,-5.404869220E-3
1.152505246E1,-5.182035486E-3
1.153498846E1,-5.912206541E-3
1.154492546E1,6.198249590E-3
1.155486246E1,-1.090529473E-2
1.156479946E1,7.722710073E-3
1.157473546E1,7.167544356E-3
1.158467246E1,6.713855239E-3
1.159460946E1,9.554304695E-3
1.160454646E1,2.028239225E-3
1.161448246E1,1.227522427E-3
1.162441946E1,4.662875826E-3
1.163435646E1,-3.713109847E-3
1.164429346E1,-5.028514098E-4
1.165422946E1,9.154802822E-3
1.166416646E1,-4.233831810E-3
1.167410346E1,5.018925578E-3
1.168404046E1,4.806484357E-3
1.169397646E1,3.782225763E-3
1.170391346E1,-5.071180500E-4
1.171385046E1,4.334796779E-4
1.172378646E1,-9.771716050E-3
1.173372346E1,-4.696899313E-3
1.174366046E1,1.398747174E-2
1.175359746E1,1.864393847E-3
1.176353346E1,3.014659937E-3
1.177347046E1,3.561945618E-3
1.178340746E1,-4.534575124E-3
1.179334446E1,-1.451393128E-2
1.180328046E1,-4.854929452E-3
1.181321746E1,7.962971251E-3
1.182315446E1,4.326683767E-3
1.183309146E1,-1.398541151E-2
1.184302746E1,-4.948466630E-3
1.185296446E1,1.463151514E-2
1.186290146E1,4.794826470E-3
1.187283846E1,-1.794483989E-2
1.188277446E1,-8.885986218E-3
1.189271146E1,1.263078523E-2
1.190264846E1,-4.032139415E-3
1.191258546E1,8.847284960E-3
1.192252146E1,7.568526305E-3
1.193245846E1,-4.510441655E-3
1.194239546E1,1.046275187E-2
1.195233146E1,-4.996244777E-3
1.196226846E1,8.120846073E-3
1.197220546E1,-1.296208939E-4
1.198214246E1,-3.662015232E-3
1.199207846E1,1.147035504E-2
1.200201546E1,-5.591080198E-4
1.201195246E1,-2.144923154E-4
1.202188946E1,-1.115486578E-2
1.203182546E1,2.346199849E-3
1.204176246E1,5.566590414E-3
1.205169946E1,1.959589259E-3
1.206163646E1,2.037165365E-2
1.207157246E1,-1.075559688E-2
1.208150946E1,-9.236490251E-3
1.209144646E1,1.600556056E-2
1.210138346E1,1.499676968E-2
1.211131946E1,2.165068639E-4
1.212125646E1,2.204228539E-2
1.213119346E1,2.307065531E-2
1.214113046E1,-4.539417350E-3
1.215106646E1,1.757318081E-2
1.216100346E1,9.696236718E-4
1.217094046E1,1.052025102E-2
1.218087646E1,9.379619127E-3
1.219081346E1,-1.095544375E-3
1.220075046E1,1.639721895E-2
1.221068746E1,-1.954573444E-3
1.222062346E1,6.021823562E-3
1.223056046E1,1.382446233E-3
1.224049746E1,1.592589682E-3
1.225043446E1,-1.374963168E-2
1.226037046E1,1.775474599E-2
1.227030746E1,-3.146491810E-3
1.228024446E1,-1.229147770E-2
1.229018146E1,5.070253168E-3
1.230011746E1,-7.666357532E-3
1.231005446E1,-6.222437876E-3
1.231999146E1,1.056100794E-2
1.232992846E1,-5.798332016E-3
1.233986446E1,4.266416333E-3
1.234980146E1,6.419023094E-3
1.235973846E1,-2.303903466E-3
1.236967446E1,-1.221958436E-2
1.237961146E1,9.808841301E-3
1.238954846E1,2.548604873E-2
1.239948546E1,-2.415119335E-3
1.240942146E1,-2.188073779E-3
1.241935846E1,2.821222167E-3
1.242929546E1,2.250777401E-2
1.243923246E1,-1.407237057E-2
1.244916846E1,-8.506287220E-3
1.245910546E1,3.805007064E-3
1.246904246E1,-4.856423233E-3
1.247897946E1,-5.318714152E-3
1.248891546E1,4.450786351E-3
1.249885246E1,1.282319517E-2
1.250878946E1,7.587420121E-3
1.251872646E1,1.749276789E-3
1.252866246E1,-1.894749119E-3
1.253859946E1,-1.470450026E-2
1.254853646E1,-1.192702258E-2
1.255847246E1,7.861645399E-3
1.256840946E1,1.410118638E-2
1.257834646E1,-8.192223217E-4
1.258828346E1,-5.133846207E-3
1.259821946E1,3.816998424E-3
1.260815646E1,-3.816427407E-3
1.261809346E1,-1.088904130E-2
1.262803046E1,4.583586669E-3
1.263796646E1,8.731491817E-3
1.264790346E1,-4.418740869E-3
1.265784046E1,3.206562814E-3
1.266777746E1,-6.627151994E-3
1.267771346E1,-2.657431606E-3
1.268765046E1,1.134348873E-2
1.269758746E1,2.347901480E-2
1.270752346E1,7.535649422E-3
1.271746046E1,-2.185109057E-3
1.272739746E1,1.020106156E-3
1.273733446E1,1.506953554E-2
1.274727046E1,1.932271341E-2
1.275720746E1,1.494478885E-2
1.276714446E1,-7.032131064E-3
1.277708146E1,-5.419638008E-4
1.278701746E1,-5.470294082E-3
1.279695446E1,-5.316672195E-4
1.280689146E1,2.763983407E-3
1.281682846E1,9.564181007E-3
1.282676446E1,6.043750620E-3
1.283670146E1,1.684208242E-3
1.284663846E1,7.617186103E-4
1.285657446E1,5.387761546E-3
1.286651146E1,-3.753268342E-3
1.287644846E1,9.001148958E-3
1.288638546E1,-3.727033529E-3
1.289632146E1,6.109198323E-4
1.290625846E1,1.988239702E-2
1.291619546E1,1.097156927E-2
1.292613246E1,1.340355417E-2
1.293606846E1,-1.837621365E-2
1.294600546E1,-9.752159854E-3
1.295594200E1,5.334341750E-3
1.296587900E1,6.685884534E-3
1.297581500E1,-3.272755123E-3
1.298575200E1,1.095060152E-3
1.299568900E1,5.893130000E-3
1.300562500E1,1.176120833E-2
1.301556200E1,1.206416720E-2
1.302549900E1,4.393200413E-3
1.303543600E1,2.556055505E-3
1.304537200E1,2.239209050E-2
1.305530900E1,2.235189546E-4
1.306524600E1,3.317472618E-3
1.307518300E1,8.556518457E-3
1.308511900E1,-1.089485197E-2
1.309505600E1,-6.800535643E-3
1.310499300E1,-3.733479171E-3
1.311493000E1,-9.498244515E-3
1.312486600E1,6.573503790E-3
1.313480300E1,1.876384750E-2
1.314474000E1,3.582127648E-3
1.315467600E1,7.088602376E-3
1.316461300E1,4.113488803E-3
1.317455000E1,6.345946603E-3
1.318448700E1,1.471777527E-2
1.319442300E1,-9.422724070E-3
1.320436000E1,4.371661646E-3
1.321429700E1,1.971068988E-3
1.322423400E1,-1.714186643E-2
1.323417000E1,2.262022784E-3
1.324410700E1,1.350111131E-2
1.325404400E1,-3.791626990E-3
1.326398000E1,1.723037409E-3
1.327391700E1,2.333724266E-3
1.328385400E1,7.987205219E-4
1.329379100E1,-3.035029261E-3
1.330372700E1,-3.625835585E-3
1.331366400E1,3.867407818E-3
1.332360100E1,8.742537573E-3
1.333353800E1,5.951063116E-3
1.334347400E1,-1.104803075E-2
1.335341100E1,-1.672344790E-3
1.336334800E1,-5.765382042E-3
1.337328500E1,-6.905196235E-4
1.338322100E1,6.262459327E-3
1.339315800E1,-4.767399374E-4
1.340309500E1,-5.993181341E-3
1.341303100E1,6.818680284E-3
1.342296800E1,-1.580671412E-3
1.343290500E1,6.748308130E-3
1.344284200E1,-4.204490664E-3
1.345277800E1,5.727841090E-3
1.346271500E1,7.732901587E-3
1.347265200E1,9.600333245E-3
1.348258900E1,-1.683792542E-3
1.349252500E1,-1.133782881E-2
1.350246200E1,-1.796929769E-2
1.351239900E1,-7.021542122E-3
1.352233500E1,7.639177116E-3
1.353227200E1,-6.054837490E-4
1.354220900E1,4.403560949E-3
1.355214600E1,2.414890928E-3
1.356208200E1,-5.680743596E-3
1.357201900E1,2.438526470E-3
1.358195600E1,9.684587969E-3
1.359189300E1,7.882361901E-3
1.360182900E1,1.882281759E-2
1.361176600E1,6.043079104E-3
1.362170300E1,-7.622448597E-3
1.363164000E1,7.615313167E-4
1.364157600E1,1.001120978E-3
1.365151300E1,-1.497009176E-2
1.366145000E1,3.455014662E-3
1.367138600E1,-9.658595268E-4
1.368132300E1,-8.554430818E-4
1.369126000E1,8.017798034E-3
1.370119700E1,5.972227296E-3
1.371113300E1,3.503816072E-3
1.372107000E1,1.031802415E-2
1.373100700E1,2.756756614E-3
1.374094400E1,-6.316034440E-3
1.375088000E1,2.672798820E-3
1.376081700E1,-9.025236745E-3
1.377075400E1,-1.537634991E-4
1.378069000E1,-1.464909790E-2
1.379062700E1,8.440090343E-4
1.380056400E1,1.193262768E-2
1.381050100E1,2.073576617E-2
1.382043700E1,5.850006784E-3
1.383037400E1,1.344188084E-3
1.384031100E1,-6.811156562E-3
1.385024800E1,-2.206990435E-3
1.386018400E1,-3.392024618E-3
1.387012100E1,2.352521694E-2
1.388005800E1,1.135741241E-2
1.388999400E1,5.697764475E-3
1.389993100E1,-5.484108129E-3
1.390986800E1,-8.582661906E-3
1.391980500E1,-1.561635984E-3
1.392974100E1,-3.200733871E-3
1.393967800E1,-6.715618540E-4
1.394961500E1,4.085486121E-3
1.395955246E1,5.072550941E-4
1.396948846E1,4.205116499E-3
1.397942546E1,6.623881208E-3
1.398936246E1,-6.327367988E-3
1.399929946E1,1.808996047E-3
1.400923546E1,8.475858858E-4
1.401917246E1,-1.165136291E-2
1.402910946E1,-8.346863799E-3
1.403904546E1,-4.461644813E-3
1.404898246E1,-3.014139170E-3
1.405891946E1,6.244424321E-3
1.406885646E1,-8.037116686E-3
1.407879246E1,-9.252930977E-3
1.408872946E1,-7.876149234E-3
1.409866646E1,1.107050142E-2
1.410860246E1,1.639906447E-2
1.411853946E1,3.803691440E-3
1.412847646E1,9.123246130E-3
1.413841346E1,-4.691613978E-3
1.414834946E1,1.666515847E-3
1.415828646E1,1.180696280E-2
1.416822346E1,-2.236139718E-2
1.417816046E1,-1.135222301E-2
1.418809646E1,4.227166898E-3
1.419803346E1,9.375644848E-4
1.420797046E1,1.283821978E-2
1.421790646E1,4.453015602E-3
1.422784346E1,-2.197328825E-2
1.423778046E1,1.585289799E-3
1.424771746E1,1.315229292E-2
1.425765346E1,9.072823031E-4
1.426759046E1,3.591926303E-5
1.427752746E1,-3.525373111E-3
1.428746446E1,-6.180296810E-3
1.429740046E1,3.503500870E-3
1.430733746E1,1.348824743E-3
1.431727446E1,-1.712918985E-3
1.432721046E1,-3.521581558E-3
1.433714746E1,-5.361344009E-3
1.434708446E1,-8.006035080E-3
1.435702146E1,7.091416349E-3
1.436695746E1,1.288846015E-2
1.437689446E1,-1.424263418E-2
1.438683146E1,7.333408850E-3
1.439676846E1,2.758497074E-3
1.440670446E1,-1.247441790E-2
1.441664146E1,1.548060394E-2
1.442657846E1,9.687420214E-4
1.443651446E1,-1.264597429E-2
1.444645146E1,3.128886209E-3
1.445638846E1,-1.576661044E-2
1.446632546E1,2.098273337E-3
1.447626146E1,-1.247430369E-2
1.448619846E1,-1.901833386E-2
1.449613546E1,-9.258097541E-3
1.450607146E1,-1.068781943E-2
1.451600846E1,-8.273568037E-3
1.452594546E1,8.552941605E-3
1.453588246E1,-1.306514656E-3
1.454581846E1,-3.788095820E-3
1.455575546E1,1.787882117E-3
1.456569246E1,-1.244341852E-2
1.457562946E1,-5.334058525E-3
1.458556546E1,-5.016399398E-3
1.459550246E1,-1.002522483E-2
1.460543946E1,-4.015081991E-3
1.461537546E1,-8.142887335E-4
1.462531246E1,1.460071219E-2
1.463524946E1,-5.407747147E-3
1.464518646E1,4.874010561E-3
1.465512246E1,3.796236240E-3
1.466505946E1,-9.568073060E-3
1.467499646E1,6.422604513E-3
1.468493346E1,8.705850863E-3
1.469486946E1,-4.280646080E-3
1.470480646E1,-2.425228623E-3
1.471474346E1,2.836593948E-3
1.472467946E1,5.203153985E-4
1.473461646E1,5.972441998E-3
1.474455346E1,-1.637055930E-3
1.475449046E1,9.901935370E-3
1.476442646E1,1.796054514E-3
1.477436346E1,-6.289237747E-3
1.478430046E1,1.593320584E-4
1.479423646E1,-3.996393741E-3
1.480417346E1,-1.336005180E-2
1.481411046E1,-1.029466726E-2
1.482404746E1,-1.195225697E-2
1.483398346E1,-2.859567110E-3
1.484392046E1,-8.736850242E-3
1.485385746E1,-1.506642921E-2
1.486379446E1,1.359118584E-2
1.487373046E1,-4.551696503E-3
1.488366746E1,1.182882590E-3
1.489360446E1,3.227462042E-3
1.490354046E1,-3.960529296E-4
1.491347746E1,-1.537063974E-3
1.492341446E1,6.930595078E-4
1.493335146E1,-1.097996094E-2
1.494328746E1,5.497232387E-3
1.495322446E1,1.094595116E-2
1.496316125E1,-1.624246873E-3
1.497309825E1,4.537672321E-3
1.498303425E1,1.583939457E-2
1.499297125E1,-1.161444322E-2
1.500290825E1,-2.209852830E-2
1.501284425E1,-1.236197320E-2
1.502278125E1,1.093388214E-3
1.503271825E1,7.002497558E-5
1.504265525E1,-4.196423334E-3
1.505259125E1,-4.440188273E-3
1.506252825E1,7.031030143E-3
1.507246525E1,1.185923142E-2
1.508240125E1,-8.001850666E-3
1.509233825E1,8.532001264E-4
1.510227525E1,3.088915008E-3
1.511221225E1,1.676716954E-2
1.512214825E1,1.147856855E-2
1.513208525E1,2.128088198E-2
1.514202225E1,-1.375658438E-2
1.515195825E1,-1.718087832E-2
1.516189525E1,-3.792248257E-3
1.517183225E1,-7.234778199E-3
1.518176925E1,-9.610022265E-3
1.519170525E1,7.032656400E-3
1.520164225E1,5.987370671E-3
1.521157925E1,1.939631067E-4
1.522151625E1,6.014450588E-3
1.523145225E1,-7.464939225E-3
1.524138925E1,-1.366740521E-2
1.525132625E1,-5.897003780E-3
1.526126225E1,8.465100895E-3
1.527119925E1,3.078604722E-4
1.528113625E1,9.118646015E-3
1.529107325E1,-1.389668458E-2
1.530100925E1,-1.110034963E-2
1.531094625E1,-1.287173620E-2
1.532088325E1,9.167735218E-3
1.533081925E1,1.298990934E-2
1.534075625E1,2.478123541E-2
1.535069325E1,-5.797386412E-3
1.536063025E1,-2.013322887E-2
1.537056625E1,-4.436839828E-3
1.538050325E1,3.736836752E-3
1.539044025E1,-5.743464120E-3
1.540037725E1,-9.718447002E-3
1.541031325E1,-4.346299348E-3
1.542025025E1,3.609239543E-4
1.543018725E1,1.510947477E-2
1.544012325E1,1.962014940E-3
1.545006025E1,-1.957428530E-3
1.545999725E1,-5.560660972E-3
1.546993425E1,-8.651818936E-3
1.547987025E1,-2.089648694E-4
1.548980725E1,1.085766277E-2
1.549974425E1,1.862886362E-5
1.550968025E1,-2.500849566E-3
1.551961725E1,2.133192178E-3
1.552955425E1,-1.326899055E-2
1.553949125E1,-1.215045931E-2
1.554942725E1,-1.178271513E-2
1.555936425E1,-3.698409582E-4
1.556930125E1,1.268928023E-3
1.557923825E1,4.598529045E-3
1.558917425E1,-1.757409444E-2
1.559911125E1,-1.035811412E-3
1.560904825E1,8.262910573E-3
1.561898425E1,1.377725063E-2
1.562892125E1,4.216728704E-3
1.563885825E1,5.795559157E-3
1.564879425E1,1.535679828E-2
1.565873125E1,-1.072579892E-2
1.566866825E1,-5.169920786E-3
1.567860525E1,1.221860221E-2
1.568854125E1,2.854994405E-4
1.569847825E1,2.596958606E-3
1.570841525E1,9.642323563E-3
1.571835225E1,2.064079459E-2
1.572828825E1,7.217108645E-3
1.573822525E1,-4.961695955E-3
1.574816225E1,-1.173019982E-3
1.575809825E1,-2.270112955E-2
1.576803525E1,-4.864472291E-4
1.577797225E1,-3.143020025E-3
1.578790925E1,-9.553011912E-3
1.579784525E1,8.303046227E-3
1.580778225E1,6.791266892E-4
1.581771925E1,-2.839777940E-3
1.582765525E1,1.381977542E-2
1.583759225E1,1.012465033E-2
1.584752925E1,-1.343684218E-2
1.585746625E1,-6.727998191E-4
1.586740225E1,8.366040839E-4
1.587733925E1,4.106298555E-4
1.588727625E1,7.956868219E-3
1.589721225E1,1.138530089E-2
1.590714925E1,-1.804003073E-3
1.591708625E1,2.538120998E-3
1.592702325E1,-9.955894207E-3
1.593695925E1,-6.512368410E-3
1.594689625E1,2.299088649E-3
1.595683325E1,4.345833398E-3
1.596677025E1,6.861739545E-3
1.597670625E1,-1.232849789E-2
1.598664325E1,1.327464134E-3
1.599658025E1,2.553821686E-3
1.600651625E1,-9.005072988E-3
1.601645325E1,1.416049451E-2
1.602639025E1,-6.230258527E-3
1.603632725E1,1.511203749E-2
1.604626325E1,1.675662628E-2
1.605620025E1,-8.701433474E-3
1.606613725E1,5.324291848E-3
1.607607325E1,-1.508060871E-3
1.608601025E1,4.636051725E-3
1.609594725E1,-1.035349573E-2
1.610588425E1,-3.727203007E-2
1.611582025E1,8.642340051E-3
1.612575725E1,-5.289683640E-3
1.613569425E1,9.975299654E-3
1.614563025E1,8.326754859E-4
1.615556725E1,-4.729086407E-3
1.616550425E1,1.904991339E-2
1.617544125E1,1.054884756E-2
1.618537725E1,1.803747714E-2
1.619531425E1,-1.809064112E-2
1.620525125E1,-1.691435035E-3
1.621518725E1,3.889905894E-3
1.622512425E1,2.724103569E-3
1.623506125E1,-9.278032891E-3
1.624499825E1,2.657824466E-3
1.625493425E1,6.042622291E-3
1.626487125E1,-1.043668151E-2
1.627480825E1,2.127523120E-3
1.628474425E1,-1.507516806E-2
1.629468125E1,-6.146711865E-3
1.630461825E1,-1.059716474E-2
1.631455525E1,-4.044299796E-3
1.632449125E1,4.120158283E-3
1.633442825E1,-2.387048132E-3
1.634436525E1,-2.788715302E-3
1.635430125E1,5.213477975E-3
1.636423825E1,3.257849291E-3
1.637417525E1,7.781269024E-3
1.638411225E1,9.700439405E-4
1.639404825E1,1.467001996E-2
1.640398525E1,1.051936480E-2
1.641392225E1,1.126527765E-2
1.642385825E1,7.633686215E-3
1.643379525E1,-7.714756946E-3
1.644373225E1,2.098181974E-3
1.645366925E1,-1.211529379E-2
1.646360525E1,-4.731041570E-3
1.647354225E1,1.428960834E-2
1.648347925E1,-9.386544423E-3
1.649341525E1,1.543573570E-2
1.650335225E1,-9.122551773E-3
1.651328925E1,1.275968893E-2
1.652322625E1,3.512787893E-3
1.653316225E1,-4.286100436E-4
1.654309925E1,-5.255326680E-3
1.655303625E1,7.137038335E-3
1.656297225E1,1.307329612E-2
1.657290925E1,2.149491291E-3
1.658284625E1,1.432755128E-2
1.659278325E1,-7.947919238E-4
1.660271925E1,-2.189819721E-2
1.661265625E1,-1.063254953E-2
1.662259325E1,-1.756383440E-2
1.663252925E1,1.795766721E-3
1.664246625E1,2.103572833E-2
1.665240325E1,-1.149983323E-2
1.666234025E1,-1.222992206E-2
1.667227625E1,-7.047466300E-3
1.668221325E1,-2.022885368E-3
1.669215025E1,1.099130362E-3
1.670208625E1,-9.703504625E-3
1.671202325E1,1.329797081E-2
1.672196025E1,4.483142467E-3
1.673189725E1,3.348170500E-3
1.674183325E1,-8.130772635E-3
1.675177025E1,3.062072634E-3
1.676170725E1,8.995443354E-3
1.677164325E1,2.298275521E-4
1.678158025E1,-6.380454311E-3
1.679151725E1,-5.916436636E-3
1.680145425E1,-6.873210138E-3
1.681139025E1,1.221936509E-2
1.682132725E1,-2.940075961E-3
1.683126425E1,-1.638573008E-2
1.684120025E1,-7.218986149E-3
1.685113725E1,2.399733849E-3
1.686107425E1,1.249976649E-2
1.687101125E1,7.049983344E-3
1.688094725E1,-3.992807753E-3
1.689088425E1,-1.023989530E-2
1.690082125E1,-2.560093738E-3
1.691075725E1,2.215113953E-2
1.692069425E1,7.133178259E-3
1.693063125E1,1.632126910E-3
1.694056825E1,-1.988036420E-2
1.695050425E1,-1.238941857E-2
1.696044096E1,7.013817402E-3
1.697037796E1,1.184553158E-2
1.698031396E1,-9.890967272E-3
1.699025096E1,-7.769643115E-3
1.700018796E1,6.206472237E-3
1.701012496E1,-7.699458255E-4
1.702006096E1,-1.318493682E-2
1.702999796E1,-5.130913462E-3
1.703993496E1,5.775395399E-3
1.704987096E1,1.184901707E-2
1.705980796E1,-3.785798047E-3
1.706974496E1,2.369150170E-3
1.707968196E1,-7.879246431E-3
1.708961796E1,-7.337300903E-3
1.709955496E1,1.948659990E-2
1.710949196E1,-2.203733353E-3
1.711942796E1,-1.581320087E-3
1.712936496E1,-5.092637041E-3
1.713930196E1,8.813010226E-3
1.714923896E1,1.564546801E-2
1.715917496E1,1.878007810E-2
1.716911196E1,7.360872491E-3
1.717904896E1,1.829113210E-2
1.718898496E1,1.120914895E-2
1.719892196E1,-1.342996257E-2
1.720885896E1,2.131835441E-3
1.721879596E1,1.452583585E-2
1.722873196E1,-9.757997934E-4
1.723866896E1,-1.230021198E-3
1.724860596E1,-5.458563105E-3
1.725854196E1,4.310402926E-4
1.726847896E1,-6.231560446E-3
1.727841596E1,-4.427968506E-3
1.728835296E1,1.071730675E-4
1.729828896E1,-6.102396366E-3
1.730822596E1,6.756567322E-3
1.731816296E1,2.847996019E-3
1.732809896E1,-1.000038786E-2
1.733803596E1,5.717489691E-3
1.734797296E1,-9.118467858E-3
1.735790896E1,-3.142316532E-3
1.736784596E1,7.705515604E-3
1.737778296E1,1.785761587E-2
1.738771996E1,1.003162935E-5
1.739765596E1,-6.321557318E-3
1.740759296E1,-7.492754613E-3
1.741752996E1,1.184750958E-3
1.742746596E1,-7.704871497E-3
1.743740296E1,-1.169975775E-2
1.744733996E1,1.260837395E-2
1.745727696E1,8.963827277E-4
1.746721296E1,1.585869952E-2
1.747714996E1,-5.708828503E-3
1.748708696E1,1.641194662E-4
1.749702296E1,6.782902633E-3
1.750695996E1,-1.581313692E-2
1.751689696E1,5.444488674E-3
1.752683396E1,-6.138516627E-3
1.753676996E1,7.648756499E-3
1.754670696E1,-1.261545913E-3
1.755664396E1,5.587169873E-3
1.756657996E1,-3.152878066E-3
1.757651696E1,3.474959149E-3
1.758645396E1,1.555538435E-2
1.759639096E1,3.248649063E-3
1.760632696E1,-8.383810893E-3
1.761626396E1,1.725700633E-3
1.762620096E1,1.571796892E-2
1.763613696E1,5.888210116E-3
1.764607396E1,-6.559100454E-3
1.765601096E1,-5.736557096E-3
1.766594696E1,-2.678253176E-3
1.767588396E1,-1.134406432E-2
1.768582096E1,-4.359560651E-3
1.769575796E1,-3.919850034E-3
1.770569396E1,1.065477352E-2
1.771563096E1,-2.636628309E-3
1.772556796E1,1.472429857E-2
1.773550396E1,3.615278620E-3
1.774544096E1,-1.628271859E-2
1.775537796E1,-3.202401241E-4
1.776531496E1,1.176361574E-2
1.777525096E1,7.438704413E-3
1.778518796E1,-2.729142224E-3
1.779512496E1,7.690920406E-3
1.780506096E1,4.769811351E-3
1.781499796E1,2.539829481E-3
1.782493496E1,1.866839171E-2
1.783487196E1,-5.797263072E-3
1.784480796E1,-6.751542371E-3
1.785474496E1,2.599178720E-3
1.786468196E1,1.960712564E-2
1.787461796E1,1.064375974E-6
1.788455496E1,-9.212361351E-3
1.789449196E1,-2.269724663E-4
1.790442896E1,-8.129996052E-3
1.791436496E1,-1.619174413E-2
1.792430196E1,9.424195010E-3
1.793423896E1,-6.539525986E-3
1.794417496E1,-1.551799871E-2
1.795411196E1,8.561680452E-3
1.796404950E1,5.724611417E-3
1.797398550E1,1.134084378E-2
1.798392250E1,5.506195072E-3
1.799385950E1,-1.286862530E-2
1.800379650E1,-3.482217919E-3
1.801373250E1,3.399941199E-3
1.802366950E1,-1.904666545E-3
1.803360650E1,2.514151982E-2
1.804354250E1,1.037013289E-2
1.805347950E1,-2.982847430E-3
1.806341650E1,-5.206191796E-3
1.807335350E1,9.008686384E-4
1.808328950E1,-9.085385408E-4
1.809322650E1,-1.316325644E-2
1.810316350E1,1.701783693E-2
1.811309950E1,6.690598852E-3
1.812303650E1,-7.922355942E-3
1.813297350E1,9.151577717E-4
1.814290950E1,8.739412967E-3
1.815284650E1,-2.973281750E-3
1.816278350E1,-1.795366553E-2
1.817272050E1,5.338923591E-3
1.818265650E1,-3.185878289E-3
1.819259350E1,-9.329237142E-3
1.820253050E1,7.327219024E-3
1.821246650E1,-1.147250663E-2
1.822240350E1,3.188404469E-3
1.823234050E1,2.465588115E-3
1.824227750E1,1.765082544E-2
1.825221350E1,-4.699896011E-3
1.826215050E1,-1.285820995E-3
1.827208750E1,-3.065215512E-3
1.828202350E1,8.951031924E-3
1.829196050E1,-7.459037192E-3
1.830189750E1,-2.131819909E-2
1.831183350E1,5.619005221E-3
1.832177050E1,1.289206898E-2
1.833170750E1,1.036205642E-2
1.834164450E1,2.651465619E-3
1.835158050E1,-7.076898809E-3
1.836151750E1,-5.931584579E-3
1.837145450E1,3.801201805E-3
1.838139050E1,1.350035756E-2
1.839132750E1,1.751452593E-2
1.840126450E1,-2.528372593E-4
1.841120150E1,5.849143406E-3
1.842113750E1,6.994772837E-3
1.843107450E1,-1.079448543E-2
1.844101150E1,4.962340062E-3
1.845094750E1,7.743718936E-3
1.846088450E1,-2.524804878E-3
1.847082150E1,-7.728159861E-3
1.848075850E1,-1.818064256E-2
1.849069450E1,1.607436128E-3
1.850063150E1,1.106228334E-2
1.851056850E1,5.306179184E-3
1.852050450E1,-9.830599339E-3
1.853044150E1,4.220346669E-3
1.854037850E1,-1.233903658E-2
1.855031450E1,-1.614420353E-2
1.856025150E1,-9.457789091E-3
1.857018850E1,-8.595932345E-3
1.858012550E1,2.762731737E-3
1.859006150E1,-1.623880052E-2
1.859999850E1,-1.691170083E-3
1.860993550E1,-9.195500356E-3
1.861987150E1,-4.639856983E-4
1.862980850E1,3.350194185E-3
1.863974550E1,1.998093631E-2
1.864968150E1,1.976614706E-2
1.865961850E1,3.567719744E-3
1.866955550E1,-1.277182647E-3
1.867949250E1,-8.636588766E-3
1.868942850E1,5.290880492E-3
1.869936550E1,9.215394594E-4
1.870930250E1,-3.451880920E-3
1.871923850E1,-6.636854718E-3
1.872917550E1,-1.133104969E-2
1.873911250E1,5.486689126E-3
1.874904950E1,-4.484983427E-3
1.875898550E1,8.477786612E-3
1.876892250E1,7.885618983E-3
1.877885950E1,4.305693177E-3
1.878879550E1,1.627672976E-2
1.879873250E1,-1.085748918E-2
1.880866950E1,-1.453856268E-2
1.881860550E1,1.728005715E-2
1.882854250E1,2.088054414E-2
1.883847950E1,-3.860103367E-3
1.884841650E1,-4.125959817E-3
1.885835250E1,-1.845410953E-2
1.886828950E1,-1.079685173E-2
1.887822650E1,6.069464665E-3
1.888816250E1,1.371096696E-2
1.889809950E1,5.337004974E-3
1.890803650E1,-4.956195918E-3
1.891797250E1,-5.830633314E-3
1.892790950E1,7.351960056E-3
1.893784650E1,-3.349929233E-3
1.894778350E1,-1.087313505E-2
1.895771950E1,4.767075037E-3
1.896765596E1,2.998278597E-3
1.897759296E1,2.732668826E-3
1.898752896E1,4.314098549E-3
1.899746596E1,6.496215477E-3
1.900740296E1,-4.471132834E-3
1.901733996E1,3.453726447E-3
1.902727596E1,1.185785641E-2
1.903721296E1,-4.398111161E-4
1.904714996E1,-1.888396211E-2
1.905708596E1,-2.627647351E-3
1.906702296E1,-2.263265317E-3
1.907695996E1,-1.603498394E-3
1.908689596E1,1.753456634E-3
1.909683296E1,1.229993333E-2
1.910676996E1,2.044633356E-2
1.911670696E1,2.226944058E-3
1.912664296E1,-6.042329930E-3
1.913657996E1,-6.182352472E-3
1.914651696E1,2.464239601E-2
1.915645296E1,7.069059885E-3
1.916638996E1,1.419448145E-3
1.917632696E1,-4.738026252E-3
1.918626296E1,3.532079137E-3
1.919619996E1,-3.924619169E-3
1.920613696E1,-1.012446304E-2
1.921607396E1,-4.235965130E-3
1.922600996E1,-1.063809982E-2
1.923594696E1,1.312454605E-2
1.924588396E1,4.627998099E-3
1.925581996E1,-1.695326175E-2
1.926575696E1,-4.259034223E-3
1.927569396E1,-9.118709969E-3
1.928562996E1,-4.747642181E-3
1.929556696E1,1.576981727E-2
1.930550396E1,1.867934153E-3
1.931544096E1,5.660972698E-3
1.932537696E1,5.869686319E-3
1.933531396E1,8.407281982E-3
1.934525096E1,2.082604626E-3
1.935518696E1,6.257891189E-4
1.936512396E1,1.418832360E-2
1.937506096E1,-3.143198183E-4
1.938499796E1,1.745658824E-3
1.939493396E1,9.602795471E-3
1.940487096E1,-8.284019935E-3
1.941480796E1,7.696548351E-3
1.942474396E1,4.875093210E-3
1.943468096E1,-2.397915730E-3
1.944461796E1,-1.198295485E-3
1.945455396E1,1.139964484E-2
1.946449096E1,6.569127515E-3
1.947442796E1,6.497170217E-3
1.948436396E1,-1.127410786E-2
1.949430096E1,-6.695993822E-3
1.950423796E1,3.368521552E-3
1.951417496E1,-1.098501330E-2
1.952411096E1,-1.539726284E-2
1.953404796E1,-1.078563238E-2
1.954398496E1,2.582687745E-3
1.955392096E1,5.970093976E-3
1.956385796E1,1.876138528E-3
1.957379496E1,-2.600731887E-3
1.958373196E1,8.095936021E-3
1.959366796E1,-8.360371781E-3
1.960360496E1,9.315747432E-3
1.961354196E1,3.179323012E-3
1.962347796E1,1.551555476E-2
1.963341496E1,1.259837887E-2
1.964335196E1,3.479125290E-3
1.965328796E1,3.020904581E-3
1.966322496E1,8.197755232E-3
1.967316196E1,-4.295451413E-3
1.968309896E1,3.732533567E-4
1.969303496E1,-8.063639291E-3
1.970297196E1,1.216327750E-2
1.971290896E1,2.137820615E-2
1.972284496E1,-1.275853319E-3
1.973278196E1,1.646980665E-2
1.974271896E1,-4.414145323E-4
1.975265496E1,-2.227926208E-3
1.976259196E1,2.674735710E-3
1.977252896E1,1.310190636E-2
1.978246596E1,-1.275500659E-2
1.979240196E1,2.919816272E-3
1.980233896E1,7.273177961E-3
1.981227596E1,3.580770912E-3
1.982221196E1,1.059577146E-2
1.983214896E1,-9.163400056E-3
1.984208596E1,5.538775027E-3
1.985202196E1,5.285216002E-3
1.986195896E1,1.294786877E-2
1.987189596E1,8.678958239E-4
1.988183296E1,-1.469500311E-2
1.989176896E1,1.481647901E-3
1.990170596E1,9.451521607E-4
1.991164296E1,-5.324570504E-3
1.992157896E1,1.845561701E-2
1.993151596E1,1.353142546E-2
1.994145296E1,2.188731590E-3
1.995138896E1,5.654380876E-3
1.996132596E1,-1.125020737E-2
1.997126296E1,-6.787795108E-5
1.998119996E1,1.471324825E-2
1.999113596E1,8.458742048E-3
2.000107296E1,1.072029888E-2
2.001100996E1,2.474143779E-2
2.002094596E1,-1.668215194E-3
2.003088296E1,-8.147670175E-3
2.004081996E1,5.574232908E-3
2.005075596E1,-9.754430219E-3
2.006069296E1,2.887039888E-3
2.007062996E1,3.787744073E-3
2.008056696E1,6.454142933E-3
2.009050296E1,7.586634401E-3
2.010043996E1,2.366888942E-3
2.011037696E1,-2.805393571E-3
2.012031296E1,-3.916670610E-3
2.013024996E1,1.467932069E-2
2.014018696E1,2.370441126E-2
2.015012296E1,-1.422730351E-2
2.016005996E1,3.298026058E-3
2.016999696E1,-5.214505806E-3
2.017993396E1,-1.142372349E-3
2.018986996E1,1.850368295E-2
2.019980696E1,7.851010775E-3
2.020974396E1,-1.254977389E-2
2.021967996E1,2.575233915E-2
2.022961696E1,1.460185879E-2
2.023955396E1,6.472762660E-3
2.024948996E1,1.071708291E-2
2.025942696E1,-7.626971053E-3
2.026936396E1,1.140258215E-2
2.027930096E1,6.930115423E-3
2.028923696E1,5.335552306E-3
2.029917396E1,-2.891375050E-3
2.030911096E1,1.199199520E-2
2.031904696E1,8.877969137E-3
2.032898396E1,-2.860133559E-3
2.033892096E1,1.449246561E-2
2.034885696E1,1.668097793E-2
2.035879396E1,-7.829458304E-3
2.036873096E1,-9.263309785E-3
2.037866796E1,9.107129741E-3
2.038860396E1,1.547091035E-4
2.039854096E1,1.983835104E-2
2.040847796E1,-7.074806602E-3
2.041841396E1,9.780290443E-4
2.042835096E1,1.150063265E-2
2.043828796E1,-8.439459940E-3
2.044822396E1,-1.064672903E-3
2.045816096E1,-2.645389996E-3
2.046809796E1,4.325071215E-3
2.047803496E1,-6.973115299E-3
2.048797096E1,-4.423834342E-3
2.049790796E1,1.243149111E-2
2.050784496E1,1.078083127E-2
2.051778096E1,1.472584717E-4
2.052771796E1,1.008256408E-3
2.053765496E1,-7.618218502E-3
2.054759096E1,1.983074052E-4
2.055752796E1,-7.365664467E-4
2.056746496E1,3.248904878E-4
2.057740096E1,1.087876756E-2
2.058733796E1,1.293650782E-4
2.059727496E1,1.797860299E-2
2.060721196E1,1.829967908E-2
2.061714796E1,1.416168222E-3
2.062708496E1,-3.328203172E-3
2.063702196E1,-8.385989894E-3
2.064695796E1,1.033228587E-2
2.065689496E1,1.134474497E-2
2.066683196E1,-4.651907729E-3
2.067676796E1,-8.480787878E-3
2.068670496E1,8.757274384E-3
2.069664196E1,8.761107051E-3
2.070657896E1,5.805385220E-3
2.071651496E1,-8.363921223E-3
2.072645196E1,1.649942645E-3
2.073638896E1,3.380243392E-3
2.074632496E1,-1.362186545E-3
2.075626196E1,2.160691907E-2
2.076619896E1,-7.306662407E-3
2.077613496E1,-3.832301684E-3
2.078607196E1,-5.415663728E-3
2.079600896E1,3.738645734E-3
2.080594596E1,8.323420119E-4
2.081588196E1,8.827285655E-4
2.082581896E1,3.175494913E-4
2.083575596E1,-7.447662530E-3
2.084569196E1,1.282029897E-2
2.085562896E1,4.138179584E-3
2.086556596E1,3.825015505E-3
2.087550196E1,5.058563305E-3
2.088543896E1,1.897125464E-2
2.089537596E1,1.325952994E-2
2.090531296E1,1.097053687E-2
2.091524896E1,-4.821984046E-3
2.092518596E1,1.733973529E-4
2.093512296E1,1.726066997E-2
2.094505896E1,1.936679137E-2
2.095499596E1,1.497015115E-3
2.096493333E1,-1.805729829E-3
2.097486933E1,1.957565117E-2
2.098480633E1,8.456809726E-3
2.099474333E1,-8.679529256E-3
2.100467933E1,1.514035994E-3
2.101461633E1,7.446488519E-3
2.102455333E1,1.284802300E-3
2.103449033E1,-1.969065403E-2
2.104442633E1,1.267468046E-2
2.105436333E1,9.244854511E-3
2.106430033E1,-3.247488756E-5
2.107423633E1,9.144177334E-4
2.108417333E1,1.114979971E-2
2.109411033E1,5.995716657E-3
2.110404633E1,5.977224838E-3
2.111398333E1,1.690416341E-3
2.112392033E1,-7.996314084E-3
2.113385733E1,2.704172786E-3
2.114379333E1,-3.223990258E-3
2.115373033E1,-3.261056123E-4
2.116366733E1,1.280265226E-2
2.117360333E1,1.997208782E-2
2.118354033E1,1.075430866E-2
2.119347733E1,-3.396542505E-3
2.120341333E1,7.840796420E-3
2.121335033E1,-7.277362375E-4
2.122328733E1,7.822400532E-3
2.123322333E1,2.246477413E-3
2.124316033E1,1.826335325E-2
2.125309733E1,-1.645771936E-3
2.126303433E1,1.056431984E-3
2.127297033E1,4.777796455E-3
2.128290733E1,4.501191177E-3
2.129284433E1,8.189838650E-3
2.130278033E1,-6.884182803E-5
2.131271733E1,1.087792702E-2
2.132265433E1,-1.237726732E-2
2.133259033E1,1.456405289E-2
2.134252733E1,1.298792220E-2
2.135246433E1,2.654073112E-2
2.136240033E1,2.066019547E-2
2.137233733E1,9.092182796E-3
2.138227433E1,-5.661854348E-3
2.139221133E1,2.680482427E-3
2.140214733E1,1.416295216E-2
2.141208433E1,6.312005343E-3
2.142202133E1,-1.175326891E-3
2.143195733E1,-7.395768492E-4
2.144189433E1,-3.535847850E-3
2.145183133E1,2.644576868E-3
2.146176733E1,-6.510714744E-3
2.147170433E1,-8.043525782E-3
2.148164133E1,-4.598245821E-3
2.149157833E1,7.502196953E-3
2.150151433E1,8.272727500E-3
2.151145133E1,-6.477833292E-3
2.152138833E1,2.694269065E-3
2.153132433E1,-7.537426427E-6
2.154126133E1,3.718737792E-4
2.155119833E1,1.674539780E-2
2.156113433E1,-1.994745643E-3
2.157107133E1,-4.151436319E-3
2.158100833E1,1.101309364E-3
2.159094433E1,-3.977678083E-3
2.160088133E1,2.094116332E-3
2.161081833E1,1.165195676E-2
2.162075533E1,1.759596211E-3
2.163069133E1,8.690748601E-3
2.164062833E1,1.077530382E-2
2.165056533E1,-7.762498548E-3
2.166050133E1,5.256354511E-3
2.167043833E1,9.754786533E-3
2.168037533E1,1.592317878E-2
2.169031133E1,4.909715122E-3
2.170024833E1,6.059190924E-3
2.171018533E1,-1.618765108E-4
2.172012133E1,-5.539706927E-3
2.173005833E1,3.559944774E-3
2.173999533E1,-1.004660371E-2
2.174993233E1,-1.180875808E-2
2.175986833E1,-2.101708576E-3
2.176980533E1,6.630907003E-3
2.177974233E1,1.502606972E-2
2.178967833E1,-3.850729549E-3
2.179961533E1,1.377106081E-3
2.180955233E1,-1.621917123E-3
2.181948833E1,4.080972802E-3
2.182942533E1,1.849192000E-2
2.183936233E1,-5.599700273E-3
2.184929933E1,-2.946809395E-3
2.185923533E1,-5.745574599E-4
2.186917233E1,4.162536892E-3
2.187910933E1,1.064063057E-2
2.188904533E1,1.381343942E-2
2.189898233E1,8.957016184E-3
2.190891933E1,7.429554434E-3
2.191885533E1,7.416489562E-3
2.192879233E1,-6.268557790E-3
2.193872933E1,6.292631873E-3
2.194866533E1,-1.366069461E-3
2.195860233E1,-1.012940119E-2
2.196853958E1,1.177140899E-2
2.197847658E1,1.315216501E-2
2.198841258E1,-1.192174181E-2
2.199834958E1,-5.175411687E-3
2.200828658E1,-1.465092972E-4
2.201822258E1,1.254567627E-2
2.202815958E1,-5.731322011E-4
2.203809658E1,1.038971193E-2
2.204803258E1,-6.200561067E-4
2.205796958E1,6.665245690E-3
2.206790658E1,8.229928622E-3
2.207784258E1,1.645269897E-2
2.208777958E1,8.419551998E-3
2.209771658E1,-1.199091712E-2
2.210765358E1,-1.659494620E-3
2.211758958E1,-1.284546484E-3
2.212752658E1,-8.047655378E-3
2.213746358E1,1.001145189E-2
2.214739958E1,-1.877157222E-3
2.215733658E1,-3.876841022E-4
2.216727358E1,-2.218360528E-3
2.217720958E1,2.155723144E-2
2.218714658E1,-4.030695884E-4
2.219708358E1,-2.513411944E-3
2.220701958E1,1.170863364E-2
2.221695658E1,3.749202699E-3
2.222689358E1,-2.374239075E-3
2.223682958E1,1.982030233E-2
2.224676658E1,5.967033324E-3
2.225670358E1,-4.724193932E-3
2.226664058E1,-3.666437189E-3
2.227657658E1,1.208950665E-2
2.228651358E1,6.848994442E-3
2.229645058E1,1.347725649E-2
2.230638658E1,1.908607020E-2
2.231632358E1,1.232698127E-3
2.232626058E1,-1.880012308E-3
2.233619658E1,-9.014259512E-4
2.234613358E1,1.399300375E-2
2.235607058E1,-1.523172269E-3
2.236600658E1,2.535028369E-3
2.237594358E1,-1.336168719E-2
2.238588058E1,1.753223203E-2
2.239581758E1,2.032211220E-2
2.240575358E1,2.089155335E-3
2.241569058E1,8.129237741E-3
2.242562758E1,9.262939766E-3
2.243556358E1,-2.613134379E-3
2.244550058E1,1.096764067E-3
2.245543758E1,-6.677492866E-3
2.246537358E1,-2.545955353E-3
2.247531058E1,-3.935989263E-3
2.248524758E1,5.484240605E-3
2.249518358E1,1.842617537E-3
2.250512058E1,1.187473568E-3
2.251505758E1,-1.993347336E-2
2.252499458E1,-1.059473906E-2
2.253493058E1,6.756105940E-3
2.254486758E1,-5.087497886E-3
2.255480458E1,-9.039050792E-3
2.256474058E1,7.746770452E-3
2.257467758E1,1.257298459E-2
2.258461458E1,8.023234117E-3
2.259455058E1,-1.472904487E-3
2.260448758E1,1.266410979E-3
2.261442458E1,3.556198901E-3
2.262436058E1,7.977931900E-4
2.263429758E1,1.019912924E-2
2.264423458E1,1.037177285E-2
2.265417158E1,1.314966167E-2
2.266410758E1,1.476259327E-2
2.267404458E1,1.675614206E-2
2.268398158E1,7.818001416E-4
2.269391758E1,8.016856997E-3
2.270385458E1,1.725674594E-2
2.271379158E1,7.116563944E-3
2.272372758E1,6.189839649E-3
2.273366458E1,1.185243860E-2
2.274360158E1,-2.704876279E-3
2.275353758E1,-1.584019857E-3
2.276347458E1,6.931965519E-4
2.277341158E1,3.480057190E-3
2.278334758E1,-1.552021882E-2
2.279328458E1,8.072889769E-3
2.280322158E1,1.536249475E-2
2.281315858E1,-9.961773399E-3
2.282309458E1,1.189807886E-3
2.283303158E1,6.416757298E-3
2.284296858E1,1.941682161E-2
2.285290458E1,1.120145621E-2
2.286284158E1,2.090091803E-3
2.287277858E1,9.431960844E-3
2.288271458E1,2.245482016E-2
2.289265158E1,4.099610802E-3
2.290258858E1,2.304205877E-2
2.291252458E1,1.685161612E-2
2.292246158E1,2.557330472E-2
2.293239858E1,1.568767760E-2
2.294233558E1,1.354228850E-3
2.295227158E1,4.116759589E-4
2.296220858E1,5.174114336E-3
2.297214521E1,5.899434029E-3
2.298208121E1,1.183864740E-2
2.299201821E1,3.397419588E-3
2.300195521E1,-8.473538244E-3
2.301189121E1,-6.845353637E-5
2.302182821E1,2.973281750E-3
2.303176521E1,-3.349317103E-3
2.304170121E1,9.750825958E-3
2.305163821E1,-4.490136285E-3
2.306157521E1,-4.354828061E-3
2.307151121E1,9.192997017E-3
2.308144821E1,1.399775462E-2
2.309138521E1,1.128681185E-2
2.310132221E1,-6.642204006E-3
2.311125821E1,-2.873477088E-3
2.312119521E1,-7.257842724E-3
2.313113221E1,-9.903173335E-4
2.314106821E1,1.162412767E-3
2.315100521E1,8.248648848E-3
2.316094221E1,6.113455826E-3
2.317087821E1,-3.069322268E-3
2.318081521E1,8.903043643E-3
2.319075221E1,8.031123290E-3
2.320068821E1,2.052245243E-2
2.321062521E1,1.369643572E-2
2.322056221E1,-4.296789877E-5
2.323049821E1,1.853394686E-2
2.324043521E1,1.738667290E-2
2.325037221E1,7.093453738E-3
2.326030921E1,-3.371193912E-3
2.327024521E1,-1.019105734E-2
2.328018221E1,8.528186870E-3
2.329011921E1,1.252967865E-2
2.330005521E1,-3.639503452E-3
2.330999221E1,7.275512279E-3
2.331992921E1,5.492682522E-3
2.332986521E1,9.467912083E-3
2.333980221E1,1.013607524E-2
2.334973921E1,-2.381872432E-3
2.335967521E1,-4.995349422E-4
2.336961221E1,-4.085801323E-3
2.337954921E1,1.205232202E-2
2.338948621E1,1.936320995E-2
2.339942221E1,8.333684723E-3
2.340935921E1,1.375258726E-2
2.341929621E1,1.762332982E-2
2.342923221E1,7.537883241E-3
2.343916921E1,-1.385097580E-2
2.344910621E1,5.558545925E-3
2.345904221E1,1.781256490E-2
2.346897921E1,2.110591776E-2
2.347891621E1,1.294164697E-2
2.348885221E1,6.018287824E-3
2.349878921E1,3.456531283E-3
2.350872621E1,3.152718181E-3
2.351866221E1,3.532787198E-3
2.352859921E1,9.989648173E-4
2.353853621E1,8.635926386E-4
2.354847321E1,9.046103996E-3
2.355840921E1,4.857007954E-3
2.356834621E1,1.736175828E-2
2.357828321E1,4.160303073E-3
2.358821921E1,4.451658865E-3
2.359815621E1,1.743036713E-2
2.360809321E1,-1.233252699E-2
2.361802921E1,1.657914958E-2
2.362796621E1,3.124135346E-3
2.363790321E1,-1.735755103E-4
2.364783921E1,6.599094495E-3
2.365777621E1,4.212361565E-3
2.366771321E1,-3.574083159E-3
2.367764921E1,1.307210840E-2
2.368758621E1,1.447164861E-2
2.369752321E1,-9.784936239E-3
2.370745921E1,6.648777556E-3
2.371739621E1,6.953248470E-3
2.372733321E1,5.241138046E-3
2.373727021E1,1.712881983E-2
2.374720621E1,1.657650006E-2
2.375714321E1,1.194033870E-2
2.376708021E1,3.909028117E-3
2.377701621E1,-7.241648678E-3
2.378695321E1,1.063698519E-2
2.379689021E1,1.331368977E-2
2.380682621E1,-1.595879198E-2
2.381676321E1,-3.208746384E-3
2.382670021E1,1.790746339E-3
2.383663621E1,4.761812543E-3
2.384657321E1,6.254775720E-3
2.385651021E1,1.000401040E-2
2.386644621E1,-4.044528203E-3
2.387638321E1,-5.163653302E-3
2.388632021E1,2.395444368E-3
2.389625721E1,-3.413682156E-3
2.390619321E1,9.345412916E-3
2.391613021E1,1.858367560E-2
2.392606721E1,3.809451861E-3
2.393600321E1,1.953202089E-2
2.394594021E1,3.422119506E-3
2.395587721E1,9.385639932E-3
2.396581321E1,6.342420001E-3
2.397575058E1,1.864253605E-2
2.398568758E1,5.425393861E-4
2.399562358E1,-6.749975500E-3
2.400556058E1,1.043483599E-2
2.401549758E1,6.700452324E-4
2.402543358E1,-6.735220416E-3
2.403537058E1,6.559895310E-3
2.404530758E1,1.654530425E-2
2.405524358E1,-5.395065998E-3
2.406518058E1,1.861446485E-2
2.407511758E1,2.713016700E-4
2.408505458E1,3.662357843E-3
2.409499058E1,1.130334851E-2
2.410492758E1,8.995845350E-3
2.411486458E1,2.234527166E-2
2.412480058E1,2.483675198E-2
2.413473758E1,1.431068572E-2
2.414467458E1,1.470318007E-2
2.415461058E1,-5.581624154E-3
2.416454758E1,1.095940889E-2
2.417448458E1,-1.158023244E-2
2.418442058E1,-5.011337902E-4
2.419435758E1,6.987801860E-3
2.420429458E1,5.147226281E-3
2.421423058E1,6.166893896E-3
2.422416758E1,1.117013249E-2
2.423410458E1,1.375253244E-2
2.424404058E1,1.188755387E-2
2.425397758E1,2.483787574E-3
2.426391458E1,1.717520926E-2
2.427385158E1,1.293934920E-2
2.428378758E1,4.388609435E-4
2.429372458E1,7.495271657E-3
2.430366158E1,1.472505688E-2
2.431359758E1,6.527849827E-3
2.432353458E1,2.215026245E-2
2.433347158E1,8.742642640E-3
2.434340758E1,2.280687736E-2
2.435334458E1,3.073095549E-3
2.436328158E1,1.260511230E-2
2.437321758E1,3.727860362E-3
2.438315458E1,9.060288062E-3
2.439309158E1,1.484836004E-2
2.440302758E1,6.553518190E-3
2.441296458E1,1.529874640E-2
2.442290158E1,2.598488018E-2
2.443283758E1,3.744739629E-3
2.444277458E1,1.535861183E-2
2.445271158E1,1.704110246E-2
2.446264858E1,1.335861283E-2
2.447258458E1,-6.567304828E-3
2.448252158E1,9.860790158E-3
2.449245858E1,3.095977805E-2
2.450239458E1,1.242927100E-2
2.451233158E1,2.197853247E-2
2.452226858E1,1.010547329E-2
2.453220458E1,2.441775786E-2
2.454214158E1,4.037570930E-3
2.455207858E1,1.232609048E-2
2.456201458E1,2.285206080E-3
2.457195158E1,-8.958089696E-3
2.458188858E1,-2.644704776E-3
2.459182458E1,1.980609999E-2
2.460176158E1,2.560736018E-2
2.461169858E1,1.773804945E-2
2.462163458E1,2.865985343E-3
2.463157158E1,1.893451311E-2
2.464150858E1,5.759589644E-3
2.465144558E1,1.276768317E-2
2.466138158E1,3.243025686E-3
2.467131858E1,2.196707558E-2
2.468125558E1,1.464737114E-2
2.469119158E1,1.871533846E-3
2.470112858E1,-2.663091528E-3
2.471106558E1,5.671917954E-3
2.472100158E1,2.555612396E-2
2.473093858E1,7.075473550E-3
2.474087558E1,1.467481194E-2
2.475081158E1,6.691978429E-3
2.476074858E1,3.326735430E-2
2.477068558E1,4.142624382E-3
2.478062158E1,1.314327084E-2
2.479055858E1,-2.595574460E-3
2.480049558E1,1.175290346E-4
2.481043158E1,1.968862577E-3
2.482036858E1,2.080053322E-2
2.483030558E1,-1.292193546E-3
2.484024158E1,-5.657902909E-3
2.485017858E1,5.144069698E-3
2.486011558E1,2.932492853E-2
2.487005258E1,1.917580212E-2
2.487998858E1,1.194382419E-2
2.488992558E1,-1.111298053E-2
2.489986258E1,2.369657233E-3
2.490979858E1,-1.445660116E-3
2.491973558E1,7.510570348E-3
2.492967258E1,8.185658804E-3
2.493960858E1,1.276457684E-2
2.494954558E1,1.194293797E-4
2.495948258E1,-3.070016624E-3
2.496941762E1,-4.069068236E-4
2.497935462E1,1.486967954E-2
2.498929162E1,9.948361348E-3
2.499922762E1,2.045809194E-2
2.500916462E1,-2.024091813E-2
2.501910162E1,1.502643517E-2
2.502903762E1,2.282357847E-2
2.503897462E1,2.587383790E-2
2.504891162E1,3.737206314E-2
2.505884762E1,1.373154642E-2
2.506878462E1,4.304573983E-3
2.507872163E1,2.484107800E-2
2.508865863E1,1.991788688E-2
2.509859463E1,1.694911388E-3
2.510853163E1,8.299519625E-3
2.511846863E1,2.564228359E-2
2.512840462E1,8.341784030E-3
2.513834162E1,1.279666800E-2
2.514827862E1,1.512128340E-2
2.515821462E1,2.801386401E-2
2.516815162E1,1.804895230E-2
2.517808862E1,2.556373904E-2
2.518802462E1,8.404353806E-3
2.519796162E1,7.219940890E-5
2.520789862E1,4.896467524E-3
2.521783462E1,1.278117745E-2
2.522777162E1,1.742086541E-2
2.523770862E1,2.371586358E-2
2.524764462E1,1.427324070E-2
2.525758162E1,1.952706903E-2
2.526751862E1,-7.625194048E-3
2.527745462E1,7.940235632E-3
2.528739162E1,2.277593280E-3
2.529732862E1,-6.322982577E-3
2.530726562E1,7.779345838E-3
2.531720162E1,1.910505995E-2
2.532713862E1,6.589505975E-3
2.533707562E1,-1.189981475E-3
2.534701162E1,3.051264421E-3
2.535694862E1,-6.791632343E-4
2.536688562E1,2.334135855E-2
2.537682162E1,3.578582774E-3
2.538675862E1,9.888966428E-3
2.539669562E1,1.355357636E-2
2.540663163E1,8.837006651E-3
2.541656863E1,1.938817025E-2
2.542650563E1,2.027273064E-2
2.543644163E1,1.714598232E-2
2.544637862E1,3.949364768E-3
2.545631562E1,6.048697913E-3
2.546625162E1,1.650374791E-2
2.547618862E1,1.667027935E-2
2.548612562E1,-3.042616937E-3
2.549606162E1,1.337821928E-2
2.550599862E1,-3.711922131E-3
2.551593562E1,-1.613315321E-3
2.552587162E1,1.740668134E-2
2.553580862E1,1.141539578E-2
2.554574562E1,7.858255841E-3
2.555568162E1,9.937548568E-3
2.556561862E1,2.224659533E-2
2.557555562E1,6.226393883E-3
2.558549262E1,3.718829155E-3
2.559542862E1,8.292955211E-3
2.560536562E1,3.626963915E-3
2.561530262E1,1.932412954E-2
2.562523862E1,1.280454347E-2
2.563517562E1,1.487818998E-2
2.564511262E1,-4.335961654E-3
2.565504862E1,-6.856582118E-3
2.566498562E1,6.534747714E-3
2.567492262E1,9.032596014E-3
2.568485862E1,1.616433531E-2
2.569479562E1,9.998569745E-3
2.570473262E1,2.485776084E-2
2.571466863E1,-5.041021658E-3
2.572460563E1,1.064840097E-2
2.573454263E1,1.518828427E-2
2.574447863E1,-1.302444446E-3
2.575441563E1,1.150365219E-2
2.576435263E1,1.686098994E-2
2.577428862E1,2.703696786E-2
2.578422562E1,4.982878407E-3
2.579416262E1,-5.463761645E-3
2.580409862E1,8.316947068E-3
2.581403562E1,2.150822447E-2
2.582397262E1,1.670544030E-2
2.583390962E1,3.197433392E-2
2.584384562E1,1.090906345E-2
2.585378262E1,1.422855061E-2
2.586371962E1,2.064470035E-2
2.587365562E1,8.170675314E-3
2.588359262E1,1.608498677E-2
2.589352962E1,-2.473865580E-3
2.590346562E1,1.882739486E-3
2.591340262E1,4.611338102E-3
2.592333962E1,1.664266496E-2
2.593327562E1,1.179280614E-2
2.594321262E1,1.843313721E-2
2.595314962E1,1.536235771E-2
2.596308562E1,1.025387837E-2
2.597302333E1,1.314691622E-2
2.598296033E1,1.517649848E-2
2.599289633E1,9.981722455E-3
2.600283333E1,4.353165259E-3
2.601277033E1,7.228752826E-3
2.602270633E1,6.201173197E-3
2.603264333E1,1.207483380E-2
2.604258033E1,-1.271479785E-2
2.605251633E1,8.821118670E-4
2.606245333E1,1.600191062E-2
2.607239033E1,9.224699889E-3
2.608232633E1,-1.258556524E-2
2.609226333E1,7.280582911E-3
2.610220033E1,1.488370829E-2
2.611213733E1,1.173384062E-2
2.612207333E1,1.296276547E-2
2.613201033E1,6.220254307E-3
2.614194733E1,1.399777746E-2
2.615188333E1,1.322488518E-2
2.616182033E1,8.622792992E-3
2.617175733E1,7.107482487E-3
2.618169333E1,-6.646758439E-3
2.619163033E1,2.615214252E-2
2.620156733E1,4.755389742E-3
2.621150333E1,8.644747459E-3
2.622144033E1,5.454593394E-3
2.623137733E1,1.091645013E-2
2.624131333E1,-1.511267703E-3
2.625125033E1,6.644880935E-3
2.626118733E1,3.583904654E-3
2.627112333E1,1.185462674E-2
2.628106033E1,7.874778793E-3
2.629099733E1,9.180914294E-3
2.630093333E1,7.120707245E-3
2.631087033E1,6.362405601E-3
2.632080733E1,2.373880476E-2
2.633074333E1,1.555265717E-2
2.634068033E1,-6.856440506E-3
2.635061733E1,-6.514967680E-3
2.636055333E1,2.332299007E-3
2.637049033E1,2.841890703E-2
2.638042733E1,1.874312643E-2
2.639036433E1,1.664735187E-2
2.640030033E1,2.032840253E-2
2.641023733E1,8.686815435E-3
2.642017433E1,5.957476781E-3
2.643011033E1,1.325976291E-2
2.644004733E1,1.200395230E-2
2.644998433E1,4.664367323E-3
2.645992033E1,1.337260275E-2
2.646985733E1,2.196762376E-2
2.647979433E1,1.242330958E-2
2.648973033E1,-1.730545142E-3
2.649966733E1,1.873857200E-2
2.650960433E1,2.493030743E-2
2.651954033E1,1.092506563E-2
2.652947733E1,5.893024933E-3
2.653941433E1,2.866920898E-2
2.654935033E1,9.750140738E-4
2.655928733E1,1.580463105E-2
2.656922433E1,2.899366549E-2
2.657916033E1,2.114865268E-2
2.658909733E1,2.301887547E-2
2.659903433E1,1.474804375E-2
2.660897033E1,2.195032422E-2
2.661890733E1,8.974461900E-3
2.662884433E1,2.123750752E-2
2.663878033E1,1.847064162E-2
2.664871733E1,1.053925904E-2
2.665865433E1,1.241716543E-2
2.666859033E1,9.839036688E-4
2.667852733E1,2.089005957E-2
2.668846433E1,2.538214645E-2
2.669840033E1,5.910881781E-3
2.670833733E1,-4.974345127E-3
2.671827433E1,4.757166747E-3
2.672821033E1,1.749624424E-2
2.673814733E1,7.975880806E-3
2.674808433E1,2.496478773E-2
2.675802033E1,2.017530598E-2
2.676795733E1,-2.516308143E-3
2.677789433E1,6.645735176E-3
2.678783133E1,1.169212440E-2
2.679776733E1,1.710544010E-2
2.680770433E1,1.410687371E-2
2.681764133E1,5.015275637E-3
2.682757733E1,1.092092233E-2
2.683751433E1,1.225012693E-2
2.684745133E1,1.442815537E-2
2.685738733E1,1.424632524E-2
2.686732433E1,1.126702725E-2
2.687726133E1,-1.144784326E-3
2.688719733E1,1.539159835E-2
2.689713433E1,1.408485072E-2
2.690707133E1,2.383521530E-3
2.691700733E1,8.924851930E-3
2.692694433E1,1.342704353E-2
2.693688133E1,1.367165814E-3
2.694681733E1,1.398442936E-2
2.695675433E1,2.451793254E-2
2.696669133E1,1.761013247E-2
2.697662737E1,9.703317331E-4
2.698656437E1,1.317617514E-2
2.699650137E1,5.377277671E-3
2.700643737E1,2.057555246E-2
2.701637437E1,1.555092584E-2
2.702631137E1,6.456125504E-3
2.703624737E1,6.466490608E-3
2.704618437E1,2.276105437E-2
2.705612137E1,1.412486304E-3
2.706605737E1,1.346738932E-2
2.707599437E1,1.877810466E-2
2.708593137E1,6.345544606E-3
2.709586737E1,1.232249079E-2
2.710580437E1,2.014724848E-2
2.711574137E1,1.533701825E-2
2.712567837E1,2.025544024E-2
2.713561437E1,1.898393579E-2
2.714555137E1,-9.891784969E-3
2.715548837E1,1.401922486E-2
2.716542437E1,5.647131242E-5
2.717536137E1,1.731513130E-2
2.718529837E1,4.236805667E-3
2.719523437E1,1.534474297E-2
2.720517137E1,7.055501654E-3
2.721510837E1,3.296792661E-3
2.722504437E1,-4.198163794E-4
2.723498137E1,5.665540835E-3
2.724491837E1,2.067839493E-2
2.725485438E1,2.838759245E-2
2.726479138E1,1.441878155E-2
2.727472838E1,-7.327657565E-4
2.728466438E1,3.296829206E-3
2.729460138E1,-1.357924473E-4
2.730453837E1,1.290643120E-2
2.731447437E1,1.265392285E-3
2.732441137E1,1.322985532E-2
2.733434837E1,1.120339767E-2
2.734428437E1,-1.141889954E-2
2.735422137E1,-2.689627837E-3
2.736415837E1,5.312469508E-3
2.737409437E1,9.608464530E-3
2.738403137E1,2.155151214E-3
2.739396837E1,7.457452049E-3
2.740390437E1,1.837943876E-2
2.741384137E1,1.049358223E-2
2.742377837E1,4.523460846E-3
2.743371437E1,-2.424324132E-3
2.744365137E1,1.451256084E-2
2.745358837E1,-4.673656630E-3
2.746352437E1,1.765189895E-2
2.747346137E1,2.751833989E-2
2.748339837E1,1.772157218E-2
2.749333437E1,2.672716593E-3
2.750327137E1,8.024563445E-3
2.751320837E1,1.535738757E-2
2.752314437E1,1.832410491E-2
2.753308137E1,2.393142027E-2
2.754301837E1,-1.914506312E-4
2.755295437E1,1.467372472E-3
2.756289137E1,-4.259038791E-3
2.757282838E1,1.012166734E-2
2.758276438E1,6.660791757E-3
2.759270138E1,1.770712773E-2
2.760263838E1,1.825525851E-2
2.761257438E1,7.898405199E-3
2.762251137E1,-7.933173291E-3
2.763244837E1,-6.858692598E-4
2.764238437E1,9.431380690E-3
2.765232137E1,-7.960787681E-3
2.766225837E1,1.059947165E-2
2.767219537E1,2.113761606E-2
2.768213137E1,-4.640496522E-4
2.769206837E1,1.404067227E-2
2.770200537E1,1.501993014E-2
2.771194137E1,-1.107371282E-3
2.772187837E1,1.586461526E-2
2.773181537E1,1.607009921E-2
2.774175137E1,4.036040604E-3
2.775168837E1,4.400226208E-3
2.776162537E1,9.264378729E-3
2.777156137E1,1.042256597E-2
2.778149837E1,-7.463376923E-4
2.779143537E1,-1.437989757E-2
2.780137137E1,4.430037872E-3
2.781130837E1,1.875538275E-2
2.782124537E1,-1.008876305E-2
2.783118137E1,-3.003458865E-3
2.784111837E1,1.479085633E-2
2.785105537E1,6.404551235E-3
2.786099137E1,1.952599552E-2
2.787092837E1,3.108270206E-3
2.788086537E1,1.068273509E-2
2.789080138E1,1.738226922E-2
2.790073838E1,8.285591374E-3
2.791067538E1,1.897465333E-2
2.792061138E1,7.648587478E-3
2.793054838E1,9.907969879E-3
2.794048538E1,-1.561754756E-3
2.795042137E1,9.495850811E-3
2.796035837E1,1.138727889E-2
2.797029537E1,4.841092564E-3
2.798023175E1,7.185579361E-3
2.799016875E1,9.633845100E-3
2.800010575E1,2.344818444E-2
2.801004175E1,9.390363386E-3
2.801997875E1,1.701404081E-2
2.802991575E1,1.118270400E-2
2.803985175E1,1.669223382E-2
2.804978875E1,9.938347992E-3
2.805972575E1,1.784845219E-2
2.806966175E1,1.392058964E-2
2.807959875E1,1.132260321E-2
2.808953575E1,2.227457060E-2
2.809947175E1,-1.013738173E-3
2.810940875E1,1.851711328E-2
2.811934575E1,9.210707685E-3
2.812928175E1,1.252712050E-2
2.813921875E1,2.000218728E-2
2.814915575E1,1.690493542E-2
2.815909175E1,1.563273661E-2
2.816902875E1,2.239072463E-2
2.817896575E1,1.151363357E-2
2.818890175E1,8.428432457E-3
2.819883875E1,9.571608799E-3
2.820877575E1,1.911681833E-2
2.821871175E1,1.065972081E-2
2.822864875E1,8.480961467E-3
2.823858575E1,9.904036713E-3
2.824852175E1,1.950578608E-2
2.825845875E1,2.047366472E-2
2.826839575E1,6.978770653E-3
2.827833175E1,-4.354892015E-3
2.828826875E1,5.825864179E-3
2.829820575E1,3.380380436E-3
2.830814175E1,-4.965428123E-3
2.831807875E1,1.249698449E-2
2.832801575E1,6.183065102E-3
2.833795175E1,1.348637450E-3
2.834788875E1,6.678278586E-3
2.835782575E1,1.893083119E-2
2.836776175E1,1.062051706E-2
2.837769875E1,1.501478642E-2
2.838763575E1,7.141652154E-3
2.839757175E1,1.495512198E-2
2.840750875E1,6.103419629E-3
2.841744575E1,1.552073959E-2
2.842738175E1,8.553407555E-3
2.843731875E1,8.513911441E-3
2.844725575E1,1.301617613E-3
2.845719175E1,-1.183731807E-2
2.846712875E1,-1.564888041E-2
2.847706575E1,2.018007511E-2
2.848700175E1,2.050046142E-2
2.849693875E1,5.165946507E-3
2.850687575E1,1.309690425E-2
2.851681275E1,9.903013450E-3
2.852674875E1,-8.208161448E-3
2.853668575E1,1.076865718E-2
2.854662275E1,1.494642881E-2
2.855655875E1,5.449084220E-3
2.856649575E1,-9.054322075E-3
2.857643275E1,6.405460294E-3
2.858636875E1,2.255892344E-2
2.859630575E1,9.907056252E-3
2.860624275E1,7.599096280E-5
2.861617875E1,2.091901242E-2
2.862611575E1,1.023175031E-2
2.863605275E1,2.425925264E-2
2.864598875E1,6.341049559E-3
2.865592575E1,-8.556842795E-3
2.866586275E1,3.226635209E-3
2.867579875E1,8.519987063E-3
2.868573575E1,7.134918720E-3
2.869567275E1,6.796017755E-3
2.870560875E1,1.688388545E-2
2.871554575E1,-5.148610426E-4
2.872548275E1,2.314085844E-3
2.873541875E1,1.656817691E-2
2.874535575E1,1.052276806E-2
2.875529275E1,-2.740105754E-4
2.876522875E1,2.315991214E-2
2.877516575E1,2.543781834E-2
2.878510275E1,9.383232524E-3
2.879503875E1,-8.956066011E-3
2.880497575E1,-1.367163073E-2
2.881491275E1,1.640566086E-2
2.882484875E1,1.758021117E-2
2.883478575E1,9.659577417E-3
2.884472275E1,1.773717694E-2
2.885465875E1,1.581038690E-2
2.886459575E1,1.406185472E-2
2.887453275E1,6.518407487E-3
2.888446875E1,1.335938942E-2
2.889440575E1,8.376227785E-3
2.890434275E1,1.796440065E-2
2.891427875E1,-2.906509289E-3
2.892421575E1,6.184271090E-3
2.893415275E1,-2.140734172E-3
2.894408875E1,-1.599853020E-4
2.895402575E1,1.495524532E-2
2.896396275E1,4.477322660E-3
2.897389883E1,2.734884373E-3
2.898383583E1,1.916461475E-3
2.899377283E1,1.997013266E-2
2.900370883E1,1.399847182E-2
2.901364583E1,-1.718734223E-3
2.902358283E1,-6.063612881E-3
2.903351883E1,1.243163729E-3
2.904345583E1,1.479775422E-2
2.905339283E1,-3.214255557E-3
2.906332883E1,4.987487658E-3
2.907326583E1,1.218269665E-2
2.908320283E1,2.024865656E-2
2.909313883E1,2.472547672E-2
2.910307583E1,2.013304157E-2
2.911301283E1,-6.934889127E-4
2.912294883E1,-6.343763033E-3
2.913288583E1,-3.705193265E-3
2.914282283E1,-5.654874234E-3
2.915275883E1,5.810309672E-3
2.916269583E1,2.043974631E-2
2.917263283E1,2.639543238E-2
2.918256883E1,1.626058139E-2
2.919250583E1,1.556225026E-2
2.920244283E1,-7.830381067E-4
2.921237883E1,1.120237440E-2
2.922231583E1,1.246261383E-2
2.923225283E1,-2.249725359E-3
2.924218883E1,9.934693482E-3
2.925212583E1,3.809287408E-3
2.926206283E1,-2.581034079E-3
2.927199883E1,-2.982587046E-3
2.928193583E1,1.209451790E-2
2.929187283E1,8.909649169E-4
2.930180883E1,1.322653885E-3
2.931174583E1,-6.371135311E-4
2.932168283E1,1.224036939E-2
2.933161883E1,4.909934392E-3
2.934155583E1,-4.754699953E-4
2.935149283E1,6.494155247E-3
2.936142883E1,1.775743206E-2
2.937136583E1,8.798497254E-3
2.938130283E1,9.049429600E-3
2.939123883E1,4.603522019E-3
2.940117583E1,5.806508982E-3
2.941111283E1,6.351323300E-3
2.942104883E1,7.528312993E-3
2.943098583E1,7.579795900E-3
2.944092283E1,1.273040717E-2
2.945085883E1,1.637591772E-2
2.946079583E1,1.685964691E-2
2.947073283E1,1.686722088E-2
2.948066883E1,2.660753556E-2
2.949060583E1,1.033148645E-2
2.950054283E1,9.066034779E-3
2.951047883E1,7.480228781E-3
2.952041583E1,3.250622498E-3
2.953035283E1,-2.480407152E-3
2.954028883E1,2.038111426E-2
2.955022583E1,1.979585823E-2
2.956016283E1,1.386983307E-2
2.957009883E1,1.619476824E-2
2.958003583E1,3.543784075E-2
2.958997283E1,1.612155014E-3
2.959990883E1,1.006705069E-2
2.960984583E1,2.173067448E-2
2.961978283E1,4.851009990E-3
2.962971883E1,3.722529346E-3
2.963965583E1,4.323262232E-3
2.964959283E1,1.546621431E-2
2.965952883E1,8.467106307E-3
2.966946583E1,2.206613107E-2
2.967940283E1,1.999565484E-2
2.968933883E1,1.011903152E-2
2.969927583E1,1.409871959E-2
2.970921283E1,1.054356222E-2
2.971914883E1,-5.319381100E-3
2.972908583E1,2.039297315E-2
2.973902283E1,-6.736663948E-3
2.974895883E1,1.954711859E-2
2.975889583E1,9.814373315E-3
2.976883283E1,5.562876519E-3
2.977876883E1,1.339461432E-2
2.978870583E1,3.059900485E-2
2.979864283E1,3.194232041E-2
2.980857883E1,1.535012880E-2
2.981851583E1,1.524918668E-2
2.982845283E1,-1.132489184E-2
2.983838883E1,7.378715635E-3
2.984832583E1,1.695960232E-2
2.985826283E1,1.956100116E-2
2.986819883E1,-1.217172856E-2
2.987813583E1,5.862980294E-3
2.988807283E1,3.542969576E-3
2.989800883E1,2.395038261E-2
2.990794583E1,2.025936427E-2
2.991788283E1,1.884466699E-2
2.992781883E1,9.703573147E-3
2.993775583E1,1.565471392E-2
2.994769283E1,4.640354910E-3
2.995762883E1,2.382819407E-2
2.996756583E1,5.431117737E-3
2.997750200E1,2.066763697E-2
2.998743800E1,1.958826837E-2
2.999737500E1,1.426592711E-2
3.000731200E1,4.330310868E-3
3.001724800E1,5.492952042E-3
3.002718500E1,2.817959603E-2
3.003712200E1,2.722829972E-2
3.004705800E1,-2.715410404E-3
3.005699500E1,5.221869643E-3
3.006693100E1,1.275176778E-2
3.007686800E1,1.378046203E-2
3.008680500E1,-1.293185745E-2
3.009674200E1,1.420776102E-2
3.010667800E1,2.141816821E-3
3.011661500E1,1.328679258E-2
3.012655100E1,7.350068847E-3
3.013648800E1,1.773442235E-2
3.014642500E1,-5.049810754E-3
3.015636200E1,9.589771712E-3
3.016629800E1,1.763415174E-3
3.017623500E1,6.044783019E-3
3.018617200E1,1.267337398E-2
3.019610800E1,2.266493163E-2
3.020604500E1,2.364467829E-4
3.021598100E1,9.252624912E-3
3.022591800E1,2.147788290E-2
3.023585500E1,1.032697313E-2
3.024579100E1,2.155360891E-2
3.025572800E1,1.272833780E-2
3.026566500E1,1.457933787E-2
3.027560100E1,6.458578594E-3
3.028553800E1,5.304575767E-3
3.029547500E1,9.040613095E-3
3.030541100E1,1.487458572E-3
3.031534800E1,1.906655512E-2
3.032528500E1,1.194382876E-2
3.033522100E1,1.836733776E-2
3.034515800E1,1.636602771E-2
3.035509500E1,3.789551685E-2
3.036503100E1,9.966981076E-3
3.037496800E1,1.599693135E-3
3.038490500E1,2.146310498E-2
3.039484100E1,-5.941780661E-3
3.040477800E1,1.450907535E-2
3.041471500E1,1.202745308E-2
3.042465100E1,1.416487535E-2
3.043458800E1,1.116391526E-2
3.044452500E1,3.894560826E-3
3.045446100E1,4.383442872E-3
3.046439800E1,1.554091249E-2
3.047433500E1,1.765293592E-2
3.048427100E1,8.974932418E-3
3.049420800E1,1.727428987E-2
3.050414500E1,1.499510688E-2
3.051408100E1,2.106510830E-2
3.052401800E1,2.543296698E-3
3.053395500E1,9.160117849E-3
3.054389100E1,2.225175504E-2
3.055382800E1,1.830225779E-2
3.056376500E1,2.147486564E-2
3.057370100E1,1.141139409E-2
3.058363800E1,2.144590137E-2
3.059357500E1,2.761831814E-3
3.060351100E1,1.044293986E-2
3.061344800E1,2.089358160E-2
3.062338500E1,1.245956003E-2
3.063332100E1,1.197812176E-2
3.064325800E1,1.421901006E-2
3.065319500E1,2.018688164E-2
3.066313100E1,9.629347769E-3
3.067306800E1,-1.389515426E-3
3.068300500E1,1.355786128E-2
3.069294100E1,2.223737226E-2
3.070287800E1,1.483149676E-2
3.071281500E1,1.223710088E-2
3.072275100E1,2.343955980E-2
3.073268800E1,3.147084982E-2
3.074262500E1,1.281584732E-2
3.075256100E1,5.198549302E-3
3.076249800E1,1.284511766E-2
3.077243500E1,1.582024723E-2
3.078237100E1,9.448159458E-3
3.079230800E1,1.663404260E-2
3.080224500E1,6.614237870E-3
3.081218100E1,1.935342728E-2
3.082211800E1,1.619454212E-2
3.083205500E1,5.751323600E-3
3.084199100E1,1.639886804E-2
3.085192800E1,2.771249486E-2
3.086186500E1,1.096711534E-2
3.087180100E1,3.135032638E-2
3.088173800E1,5.527811497E-3
3.089167500E1,1.407984176E-2
3.090161100E1,1.575580908E-2
3.091154800E1,4.844520951E-3
3.092148500E1,6.966411558E-3
3.093142100E1,1.651500380E-2
3.094135800E1,1.806734362E-2
3.095129500E1,-4.475753505E-3
3.096123100E1,-1.919554104E-4
3.097116800E1,-4.348195125E-3
3.098110537E1,7.511545646E-3
3.099104137E1,3.314094709E-2
3.100097837E1,1.912526939E-2
3.101091437E1,1.683030120E-2
3.102085137E1,1.682661471E-2
3.103078837E1,-6.378170243E-3
3.104072437E1,1.362872222E-2
3.105066137E1,2.792644814E-2
3.106059837E1,1.939716720E-2
3.107053438E1,7.684346857E-3
3.108047138E1,6.370308478E-3
3.109040838E1,9.806164373E-3
3.110034438E1,6.066883667E-3
3.111028138E1,5.724458385E-3
3.112021837E1,1.391348162E-2
3.113015437E1,2.259138462E-2
3.114009137E1,2.407523893E-2
3.115002837E1,1.845681387E-2
3.115996437E1,1.783649737E-2
3.116990137E1,1.024467814E-2
3.117983837E1,1.979497658E-2
3.118977437E1,2.710408294E-3
3.119971137E1,1.349242043E-2
3.120964837E1,2.328029169E-2
3.121958437E1,3.551061118E-2
3.122952137E1,5.953388298E-3
3.123945837E1,2.457359073E-2
3.124939437E1,2.869134617E-2
3.125933137E1,4.844048149E-3
3.126926837E1,9.715180784E-3
3.127920437E1,1.448308265E-2
3.128914137E1,6.815701858E-3
3.129907837E1,1.186371505E-2
3.130901437E1,1.538906761E-2
3.131895137E1,1.427743425E-2
3.132888837E1,2.417656478E-2
3.133882437E1,2.885034475E-3
3.134876137E1,1.272427216E-3
3.135869837E1,2.259079533E-2
3.136863437E1,1.734737779E-2
3.137857137E1,1.880680170E-2
3.138850838E1,2.303311436E-2
3.139844438E1,2.418739584E-2
3.140838138E1,2.175859950E-2
3.141831838E1,3.415376935E-3
3.142825438E1,9.930353751E-4
3.143819137E1,1.057230494E-2
3.144812837E1,1.264040116E-2
3.145806437E1,7.639241070E-3
3.146800137E1,2.285693501E-2
3.147793837E1,1.431788511E-2
3.148787437E1,3.590304614E-3
3.149781137E1,1.680138946E-2
3.150774837E1,2.464484453E-2
3.151768437E1,2.250007669E-2
3.152762137E1,1.572329537E-2
3.153755837E1,2.243626439E-2
3.154749437E1,2.964296681E-2
3.155743137E1,5.867438796E-3
3.156736737E1,1.080755030E-2
3.157730437E1,-1.633200422E-3
3.158724137E1,5.181414220E-3
3.159717737E1,1.519831361E-2
3.160711437E1,1.445902913E-2
3.161705137E1,1.467554284E-2
3.162698737E1,1.384664977E-2
3.163692437E1,-2.556206253E-3
3.164686137E1,-9.437319268E-3
3.165679737E1,-2.296567038E-3
3.166673437E1,1.542683696E-2
3.167667137E1,1.392198749E-2
3.168660737E1,3.482437646E-2
3.169654437E1,1.624681303E-2
3.170648138E1,3.142608893E-3
3.171641738E1,1.989951840E-2
3.172635438E1,2.591001755E-3
3.173629138E1,1.207375115E-2
3.174622737E1,1.993608634E-2
3.175616437E1,1.237845961E-2
3.176610137E1,9.663081178E-3
3.177603737E1,1.058067377E-3
3.178597437E1,-4.032600797E-3
3.179591137E1,-9.902223162E-3
3.180584737E1,2.567918957E-3
3.181578437E1,1.748219265E-2
3.182572137E1,1.335931633E-2
3.183565737E1,2.516198508E-3
3.184559437E1,1.348034455E-3
3.185553137E1,2.777546663E-2
3.186546737E1,1.668142104E-2
3.187540437E1,-1.343169389E-4
3.188534137E1,1.926173792E-2
3.189527737E1,1.499425721E-2
3.190521437E1,1.219852068E-2
3.191515137E1,1.377800894E-2
3.192508737E1,8.718737578E-3
3.193502437E1,8.607622208E-3
3.194496137E1,1.981895473E-2
3.195489737E1,-1.423134631E-2
3.196483437E1,-1.068378576E-2
3.197477037E1,2.056293983E-2
3.198470762E1,7.727168575E-3
3.199464462E1,8.552192431E-4
3.200458062E1,8.457097518E-3
3.201451762E1,3.656570013E-3
3.202445462E1,7.656513196E-3
3.203439062E1,2.751795617E-3
3.204432762E1,7.851531543E-3
3.205426462E1,1.357446645E-2
3.206420062E1,2.410777777E-2
3.207413762E1,2.223798896E-2
3.208407462E1,4.791816068E-3
3.209401063E1,-6.904730285E-3
3.210394763E1,3.034693046E-2
3.211388463E1,1.440733837E-2
3.212382063E1,1.253990214E-3
3.213375763E1,9.172860668E-3
3.214369463E1,-3.728257790E-3
3.215363062E1,7.001172798E-3
3.216356762E1,1.453927988E-2
3.217350462E1,1.192571609E-2
3.218344062E1,1.700093026E-2
3.219337762E1,1.192385229E-2
3.220331462E1,-1.827615774E-3
3.221325062E1,-3.484556805E-3
3.222318762E1,8.172730976E-3
3.223312462E1,6.447761245E-3
3.224306062E1,1.266893832E-2
3.225299762E1,1.585816962E-2
3.226293462E1,2.442391114E-2
3.227287062E1,1.103942895E-2
3.228280762E1,2.869410989E-2
3.229274462E1,2.516591367E-2
3.230268062E1,-4.690581579E-3
3.231261762E1,-5.954745035E-3
3.232255462E1,1.076610816E-2
3.233249062E1,1.740394960E-2
3.234242762E1,-1.896302286E-3
3.235236362E1,6.868459275E-3
3.236230062E1,1.140483881E-2
3.237223762E1,1.106730829E-2
3.238217362E1,1.425227752E-2
3.239211062E1,2.004655760E-2
3.240204762E1,1.489121374E-2
3.241198363E1,2.196572341E-2
3.242192063E1,-3.779754401E-3
3.243185763E1,2.340603881E-3
3.244179363E1,1.496695345E-2
3.245173063E1,-5.785317393E-4
3.246166763E1,3.323785784E-3
3.247160362E1,5.170953185E-3
3.248154062E1,1.256633795E-2
3.249147762E1,2.159001696E-2
3.250141362E1,2.777233746E-2
3.251135062E1,2.363423096E-2
3.252128762E1,3.225068338E-3
3.253122362E1,1.688706030E-2
3.254116062E1,2.301982564E-2
3.255109762E1,4.199488554E-3
3.256103362E1,2.381961968E-2
3.257097062E1,6.212017955E-3
3.258090762E1,1.606522501E-2
3.259084362E1,-1.299195130E-2
3.260078062E1,1.451274814E-2
3.261071762E1,2.837525848E-3
3.262065362E1,5.118552083E-3
3.263059062E1,1.881248446E-2
3.264052762E1,-9.782985644E-4
3.265046362E1,1.016668176E-2
3.266040062E1,-1.937872334E-3
3.267033762E1,1.257028482E-2
3.268027362E1,4.696602384E-3
3.269021062E1,2.028034572E-2
3.270014662E1,2.132178051E-3
3.271008362E1,2.412546103E-2
3.272002062E1,1.366062152E-2
3.272995663E1,2.423949544E-3
3.273989363E1,1.519443298E-2
3.274983063E1,1.031898346E-2
3.275976663E1,5.181624354E-3
3.276970363E1,1.902636921E-2
3.277964062E1,1.491382602E-3
3.278957662E1,7.615742572E-3
3.279951362E1,7.601060579E-4
3.280945062E1,-7.404493634E-4
3.281938662E1,3.166857936E-2
3.282932362E1,-7.165863281E-3
3.283926062E1,2.459932304E-2
3.284919662E1,1.038845112E-2
3.285913362E1,8.752336227E-3
3.286907062E1,1.075572022E-2
3.287900662E1,-1.245685341E-3
3.288894362E1,1.134315982E-2
3.289888062E1,1.152841149E-2
3.290881662E1,1.813785739E-2
3.291875362E1,5.254796776E-3
3.292869062E1,-5.118853580E-3
3.293862662E1,1.491027201E-2
3.294856362E1,1.725634395E-2
3.295850062E1,1.430171847E-2
3.296843662E1,2.311108789E-2
3.297837358E1,1.848761681E-3
3.298831058E1,1.750029618E-2
3.299824658E1,-6.852945881E-3
3.300818358E1,1.076150348E-2
3.301811958E1,9.611954587E-3
3.302805658E1,1.907910379E-2
3.303799358E1,7.504572384E-3
3.304792958E1,2.656221050E-3
3.305786658E1,1.837110191E-2
3.306780358E1,7.508880137E-3
3.307773958E1,6.517352248E-3
3.308767658E1,7.215368184E-3
3.309761358E1,1.583432851E-2
3.310754958E1,1.284772607E-2
3.311748658E1,1.859279361E-2
3.312742358E1,1.751044658E-2
3.313735958E1,5.173410843E-3
3.314729658E1,4.197373507E-3
3.315723358E1,1.253401838E-2
3.316716958E1,-8.281621663E-4
3.317710658E1,3.752354714E-3
3.318704358E1,6.222118107E-3
3.319697958E1,1.103378730E-3
3.320691658E1,1.474199553E-2
3.321685358E1,1.334955879E-3
3.322678958E1,-7.771497779E-3
3.323672658E1,1.806214965E-2
3.324666358E1,2.204867621E-2
3.325659958E1,1.096197161E-2
3.326653658E1,3.882135493E-3
3.327647358E1,6.828351030E-3
3.328640958E1,1.218022986E-2
3.329634658E1,1.165155934E-2
3.330628258E1,6.585380947E-3
3.331621958E1,2.031172883E-2
3.332615658E1,1.185232440E-2
3.333609258E1,1.407771529E-2
3.334602958E1,2.605249775E-2
3.335596658E1,3.001480862E-2
3.336590258E1,3.455402954E-3
3.337583958E1,1.427433249E-3
3.338577658E1,1.720666545E-3
3.339571258E1,1.401688598E-2
3.340564958E1,8.824467114E-3
3.341558658E1,2.149739798E-2
3.342552258E1,1.898174765E-2
3.343545958E1,1.356441198E-2
3.344539658E1,1.150010275E-2
3.345533258E1,4.957296839E-3
3.346526958E1,-1.253624307E-2
3.347520658E1,4.640770610E-4
3.348514258E1,-5.145663978E-3
3.349507958E1,3.122034003E-2
3.350501658E1,2.314883441E-2
3.351495258E1,6.719866907E-3
3.352488958E1,2.417682060E-3
3.353482658E1,8.883062610E-3
3.354476258E1,3.624953935E-3
3.355469958E1,1.692386121E-2
3.356463658E1,7.215180891E-3
3.357457258E1,3.106844947E-3
3.358450958E1,9.312421829E-4
3.359444558E1,-3.080199002E-3
3.360438258E1,1.810906899E-2
3.361431958E1,2.507369212E-2
3.362425558E1,1.624393053E-3
3.363419258E1,1.044049134E-2
3.364412958E1,1.111980532E-2
3.365406558E1,1.601723216E-2
3.366400258E1,-1.200400483E-2
3.367393958E1,-2.247980330E-3
3.368387558E1,-3.938647918E-3
3.369381258E1,7.406051368E-3
3.370374958E1,1.396195869E-2
3.371368558E1,5.431844071E-3
3.372362258E1,1.000814913E-3
3.373355958E1,1.724914456E-2
3.374349558E1,8.595105512E-3
3.375343258E1,2.342164356E-2
3.376336958E1,8.046371732E-3
3.377330558E1,8.796048732E-3
3.378324258E1,-1.055705650E-3
3.379317958E1,6.398690315E-3
3.380311558E1,9.317803094E-3
3.381305258E1,8.839953099E-3
3.382298858E1,-8.275134908E-4
3.383292558E1,2.036113323E-2
3.384286258E1,2.897928500E-2
3.385279858E1,1.635144164E-2
3.386273558E1,1.502133713E-2
3.387267258E1,1.711238367E-2
3.388260858E1,-3.654971165E-3
3.389254558E1,1.614560138E-2
3.390248258E1,1.816712544E-2
3.391241858E1,1.967987779E-2
3.392235558E1,1.650111666E-2
3.393229258E1,1.077742344E-2
3.394222858E1,1.050139831E-2
3.395216558E1,7.905394449E-3
3.396210258E1,6.550283949E-3
3.397203858E1,1.632574130E-2
3.398197508E1,1.136190289E-2
3.399191208E1,1.533117103E-2
3.400184808E1,1.169815890E-2
3.401178508E1,7.291569281E-4
3.402172208E1,-5.305804596E-3
3.403165808E1,-4.172299001E-3
3.404159508E1,6.478157630E-3
3.405153208E1,1.020243657E-2
3.406146808E1,-2.717018388E-3
3.407140508E1,-2.219931968E-4
3.408134108E1,1.374434634E-2
3.409127808E1,7.335852804E-3
3.410121508E1,4.498125957E-3
3.411115108E1,1.400934855E-2
3.412108808E1,2.007244066E-2
3.413102508E1,7.003845158E-3
3.414096108E1,8.543627174E-3
3.415089808E1,1.209017817E-2
3.416083508E1,6.601492767E-3
3.417077108E1,8.084561359E-3
3.418070808E1,1.180502591E-3
3.419064508E1,6.390664098E-3
3.420058108E1,1.803692440E-3
3.421051808E1,-6.473406767E-3
3.422045508E1,1.994184219E-2
3.423039108E1,1.948051515E-2
3.424032808E1,7.917404082E-3
3.425026508E1,2.650530978E-2
3.426020108E1,2.646860937E-3
3.427013808E1,-3.999568596E-3
3.428007508E1,2.340373646E-2
3.429001108E1,-5.893011228E-3
3.429994808E1,2.359008449E-2
3.430988408E1,2.023019671E-2
3.431982108E1,5.591893326E-3
3.432975808E1,2.871005726E-3
3.433969408E1,1.330388655E-2
3.434963108E1,1.102671582E-2
3.435956808E1,4.435505932E-3
3.436950408E1,1.498074923E-2
3.437944108E1,8.537661186E-3
3.438937808E1,3.764218166E-3
3.439931408E1,4.891040577E-3
3.440925108E1,-9.875581786E-4
3.441918808E1,1.892238471E-2
3.442912408E1,3.968477855E-3
3.443906108E1,1.535323970E-2
3.444899808E1,1.011869348E-2
3.445893408E1,-9.599986067E-4
3.446887108E1,2.452121247E-3
3.447880808E1,9.046464879E-3
3.448874408E1,-1.378961201E-2
3.449868108E1,4.438402131E-3
3.450861808E1,1.711510171E-2
3.451855408E1,-2.768295729E-3
3.452849108E1,-1.761089992E-3
3.453842708E1,1.383752264E-2
3.454836408E1,8.584233345E-3
3.455830108E1,1.192713222E-3
3.456823708E1,1.531569418E-2
3.457817408E1,2.205466961E-2
3.458811108E1,1.383990264E-2
3.459804708E1,1.801162605E-2
3.460798408E1,-1.504702376E-2
3.461792108E1,-2.277522474E-3
3.462785708E1,-9.497266933E-3
3.463779408E1,7.635910898E-3
3.464773108E1,8.850583155E-3
3.465766708E1,2.078291391E-2
3.466760408E1,-2.572820568E-4
3.467754108E1,6.435281094E-3
3.468747708E1,1.801463645E-2
3.469741408E1,1.169452724E-2
3.470735108E1,2.325003692E-2
3.471728708E1,4.405890699E-3
3.472722408E1,1.479104362E-2
3.473716008E1,1.836178291E-2
3.474709708E1,1.027483698E-3
3.475703408E1,8.468458476E-3
3.476697008E1,3.325444018E-3
3.477690708E1,1.245602201E-2
3.478684408E1,3.900001477E-3
3.479678008E1,7.039207108E-3
3.480671708E1,-5.184447463E-3
3.481665408E1,2.412410430E-3
3.482659008E1,-6.992539018E-4
3.483652708E1,3.921202202E-3
3.484646408E1,-7.925032871E-3
3.485640008E1,7.152702478E-3
3.486633708E1,6.346074510E-3
3.487627408E1,3.817528328E-3
3.488621008E1,3.831282989E-3
3.489614708E1,7.447429555E-3
3.490608408E1,7.360790265E-3
3.491602008E1,1.460033303E-2
3.492595708E1,1.622707411E-2
3.493589308E1,-3.367744968E-3
3.494583008E1,2.126170951E-3
3.495576708E1,7.052230868E-3
3.496570308E1,1.720688016E-2
3.497564008E1,9.802514431E-3
3.498557733E1,2.266773647E-3
3.499551333E1,9.970895969E-3
3.500545033E1,5.105363871E-3
3.501538733E1,1.959755082E-2
3.502532333E1,1.196236169E-2
3.503526033E1,1.406439460E-2
3.504519733E1,1.346949523E-2
3.505513333E1,7.566831526E-3
3.506507033E1,1.045322274E-3
3.507500733E1,4.038744941E-3
3.508494333E1,7.845063061E-3
3.509488033E1,2.051116456E-3
3.510481633E1,1.792815248E-2
3.511475333E1,1.008625057E-2
3.512469033E1,6.407237300E-3
3.513462633E1,1.739898403E-3
3.514456333E1,3.810867984E-3
3.515450033E1,1.658727173E-3
3.516443633E1,2.836529994E-3
3.517437333E1,-1.050717244E-3
3.518431033E1,1.353367299E-2
3.519424633E1,5.580984615E-4
3.520418333E1,7.135745552E-3
3.521412033E1,1.264364454E-3
3.522405633E1,1.230588104E-2
3.523399333E1,-1.562700360E-3
3.524393033E1,9.948050715E-3
3.525386633E1,1.623620125E-2
3.526380333E1,-9.745344194E-4
3.527374033E1,8.488553711E-3
3.528367633E1,1.480622811E-2
3.529361333E1,7.485029893E-3
3.530355033E1,7.198498053E-3
3.531348633E1,-8.384107822E-3
3.532342333E1,8.311725687E-5
3.533335933E1,1.283032147E-2
3.534329633E1,1.406619445E-2
3.535323333E1,1.231799117E-2
3.536316933E1,5.433666757E-3
3.537310633E1,-4.428566932E-3
3.538304333E1,1.375136300E-2
3.539297933E1,2.219000068E-3
3.540291633E1,4.475152795E-3
3.541285333E1,1.072277938E-2
3.542278933E1,5.476164138E-3
3.543272633E1,2.224940473E-2
3.544266333E1,8.043402443E-3
3.545259933E1,2.075738716E-3
3.546253633E1,2.002351591E-3
3.547247333E1,1.355969310E-2
3.548240933E1,7.762343232E-3
3.549234633E1,1.989572684E-2
3.550228233E1,1.624360620E-2
3.551221933E1,1.395565923E-2
3.552215633E1,1.167388839E-2
3.553209233E1,1.804072509E-2
3.554202933E1,1.515036416E-2
3.555196633E1,7.491105516E-3
3.556190233E1,1.031298093E-2
3.557183933E1,1.363714586E-2
3.558177633E1,9.975327062E-3
3.559171233E1,1.688171101E-2
3.560164933E1,4.332074169E-3
3.561158633E1,9.950736780E-3
3.562152233E1,3.242189717E-3
3.563145933E1,9.069442609E-3
3.564139633E1,1.811055363E-2
3.565133233E1,5.214588032E-3
3.566126933E1,1.449505574E-2
3.567120533E1,4.383447440E-3
3.568114233E1,4.131829874E-3
3.569107933E1,2.141469643E-3
3.570101533E1,1.459078106E-2
3.571095233E1,2.051933239E-2
3.572088933E1,1.016252476E-2
3.573082533E1,-4.972632076E-3
3.574076233E1,2.471280014E-3
3.575069933E1,1.879079951E-2
3.576063533E1,5.448645679E-3
3.577057233E1,2.725365289E-2
3.578050933E1,9.500633650E-3
3.579044533E1,5.849307859E-3
3.580038233E1,1.216328664E-2
3.581031933E1,6.622296064E-3
3.582025533E1,8.135436703E-3
3.583019233E1,1.597301259E-2
3.584012833E1,-8.620604854E-3
3.585006533E1,-9.127914766E-4
3.586000233E1,7.438964797E-3
3.586993833E1,2.837784862E-2
3.587987533E1,1.949818470E-2
3.588981233E1,1.898537932E-2
3.589974833E1,1.525277266E-2
3.590968533E1,1.322478469E-2
3.591962233E1,2.330920800E-2
3.592955833E1,3.496813118E-3
3.593949533E1,-4.375338997E-3
3.594943233E1,1.928162302E-2
3.595936833E1,-5.538610574E-3
3.596930533E1,1.151817887E-2
3.597924233E1,1.018464825E-2
3.598917850E1,1.037091861E-2
3.599911550E1,1.254240548E-2
3.600905150E1,2.809605394E-3
3.601898850E1,1.331993442E-2
3.602892550E1,-2.042331928E-3
3.603886150E1,1.863721874E-2
3.604879850E1,4.999127272E-3
3.605873550E1,1.031727041E-2
3.606867150E1,1.063211556E-2
3.607860850E1,3.157939562E-3
3.608854550E1,8.310560812E-3
3.609848150E1,5.672694538E-3
3.610841850E1,-4.001861801E-3
3.611835550E1,2.937147785E-2
3.612829150E1,1.270645643E-2
3.613822850E1,9.408476050E-3
3.614816450E1,2.125834736E-2
3.615810150E1,-4.267421323E-3
3.616803850E1,-1.476355257E-2
3.617797450E1,9.929102082E-3
3.618791150E1,3.593908874E-3
3.619784850E1,1.814272702E-2
3.620778450E1,7.361959708E-3
3.621772150E1,2.249994422E-2
3.622765850E1,1.645395064E-2
3.623759450E1,5.513494955E-3
3.624753150E1,8.788547851E-3
3.625746850E1,5.722071533E-3
3.626740450E1,1.417196053E-3
3.627734150E1,1.359198526E-2
3.628727850E1,1.121697417E-2
3.629721450E1,1.248220657E-2
3.630715150E1,-6.806099634E-3
3.631708750E1,4.086244432E-3
3.632702450E1,1.938813827E-2
3.633696150E1,1.395033735E-2
3.634689750E1,3.431845070E-3
3.635683450E1,3.520259995E-2
3.636677150E1,2.361008379E-2
3.637670750E1,3.159140982E-3
3.638664450E1,2.069558026E-3
3.639658150E1,1.947025054E-2
3.640651750E1,3.349454147E-3
3.641645450E1,2.229356948E-2
3.642639150E1,2.673533833E-2
3.643632750E1,2.741818805E-2
3.644626450E1,8.388164327E-3
3.645620150E1,9.135109582E-3
3.646613750E1,1.250076234E-2
3.647607450E1,7.453692472E-3
3.648601050E1,1.531265637E-2
3.649594750E1,1.390207498E-3
3.650588450E1,1.253906617E-2
3.651582050E1,1.561227136E-2
3.652575750E1,-2.771580219E-4
3.653569450E1,-5.621015201E-3
3.654563050E1,9.566647802E-3
3.655556750E1,5.058750599E-3
3.656550450E1,2.033503090E-2
3.657544050E1,1.560921527E-2
3.658537750E1,4.895668100E-3
3.659531450E1,2.059977272E-2
3.660525050E1,1.355290028E-2
3.661518750E1,1.615910936E-2
3.662512350E1,1.338101955E-2
3.663506050E1,1.708012805E-3
3.664499750E1,1.484825041E-2
3.665493350E1,4.037584634E-3
3.666487050E1,1.339125674E-2
3.667480750E1,2.937016223E-2
3.668474350E1,2.030380768E-2
3.669468050E1,5.052816588E-4
3.670461750E1,1.252240618E-2
3.671455350E1,1.404300658E-2
3.672449050E1,1.800766548E-2
3.673442750E1,-5.947531946E-4
3.674436350E1,1.608934477E-3
3.675430050E1,8.067969885E-3
3.676423650E1,2.014383151E-2
3.677417350E1,1.466409509E-2
3.678411050E1,3.851085864E-3
3.679404650E1,2.348400320E-2
3.680398350E1,5.458622491E-3
3.681392050E1,8.656099280E-3
3.682385650E1,2.138068208E-2
3.683379350E1,8.877119464E-3
3.684373050E1,1.880931874E-2
3.685366650E1,1.030978323E-2
3.686360350E1,7.335852804E-3
3.687354050E1,-1.231144960E-3
3.688347650E1,7.837224137E-3
3.689341350E1,1.347491761E-2
3.690334950E1,1.313055315E-2
3.691328650E1,2.118286346E-3
3.692322350E1,5.552899707E-3
3.693315950E1,3.830963220E-3
3.694309650E1,1.741256054E-2
3.695303350E1,1.798101040E-2
3.696296950E1,1.873071937E-2
3.697290650E1,1.562351811E-2
3.698284358E1,1.370497813E-2
3.699277958E1,-4.356312705E-4
3.700271658E1,5.718873837E-3
3.701265358E1,9.807562223E-4
3.702258958E1,6.415386857E-3
3.703252658E1,7.631073240E-5
3.704246358E1,1.150656666E-2
3.705239958E1,1.029312323E-2
3.706233658E1,1.358553962E-2
3.707227258E1,1.156753759E-2
3.708220958E1,9.077071398E-4
3.709214658E1,1.645795690E-2
3.710208258E1,-1.064535859E-2
3.711201958E1,-7.910670647E-3
3.712195658E1,2.856876478E-3
3.713189258E1,1.093372682E-2
3.714182958E1,1.157836407E-2
3.715176658E1,1.697033287E-2
3.716170258E1,1.051650971E-2
3.717163958E1,2.347108908E-3
3.718157558E1,1.419925058E-2
3.719151258E1,6.787562133E-3
3.720144958E1,4.432189465E-3
3.721138558E1,7.349520670E-3
3.722132258E1,2.833855350E-2
3.723125958E1,1.153481145E-2
3.724119558E1,-1.159009505E-3
3.725113258E1,1.694800839E-2
3.726106958E1,1.779694644E-2
3.727100558E1,1.286725943E-2
3.728094258E1,6.117690490E-3
3.729087958E1,1.754420511E-3
3.730081558E1,-1.083970542E-2
3.731075258E1,1.955496208E-3
3.732068958E1,2.416228936E-2
3.733062558E1,9.065038925E-3
3.734056258E1,-1.366672455E-3
3.735049858E1,1.013514334E-2
3.736043558E1,2.114225729E-2
3.737037258E1,3.154052077E-3
3.738030858E1,9.291106900E-3
3.739024558E1,1.077996789E-2
3.740018258E1,-1.164340521E-3
3.741011858E1,1.035772126E-2
3.742005558E1,4.320795438E-3
3.742999258E1,-1.774273636E-3
3.743992858E1,2.408351183E-2
3.744986558E1,1.228496811E-2
3.745980258E1,9.309164747E-3
3.746973858E1,4.392834962E-3
3.747967558E1,1.621701050E-2
3.748961158E1,9.856486972E-3
3.749954858E1,2.308690874E-3
3.750948558E1,1.438281204E-2
3.751942158E1,8.699802649E-3
3.752935858E1,5.125714922E-3
3.753929558E1,2.643015936E-2
3.754923158E1,1.801300106E-2
3.755916858E1,9.082361301E-3
3.756910558E1,1.572175590E-2
3.757904158E1,2.825815885E-2
3.758897858E1,1.237251646E-2
3.759891458E1,7.283995310E-3
3.760885158E1,1.717029395E-2
3.761878858E1,2.058923403E-2
3.762872458E1,8.632582510E-3
3.763866158E1,-4.827959170E-3
3.764859858E1,5.901206466E-3
3.765853458E1,1.507631466E-2
3.766847158E1,2.611002887E-2
3.767840858E1,9.160650037E-3
3.768834458E1,2.125772153E-2
3.769828158E1,2.723886126E-2
3.770821858E1,1.838284659E-2
3.771815458E1,2.675822927E-3
3.772809158E1,3.986640768E-3
3.773802758E1,-4.894503225E-3
3.774796458E1,1.398704234E-2
3.775790158E1,1.159726703E-3
3.776783758E1,5.339549426E-3
3.777777458E1,4.062695685E-3
3.778771158E1,-5.789245991E-3
3.779764758E1,1.040733580E-2
3.780758458E1,6.337545798E-3
3.781752158E1,-3.934193985E-3
3.782745758E1,9.411006798E-3
3.783739458E1,3.476297613E-3
3.784733158E1,2.039809860E-2
3.785726758E1,1.883209547E-2
3.786720458E1,1.555443874E-2
3.787714058E1,7.824122719E-4
3.788707758E1,5.052894247E-3
3.789701458E1,1.263824957E-2
3.790695058E1,4.403327974E-3
3.791688758E1,1.194698534E-2
3.792682458E1,-2.650780398E-3
3.793676058E1,3.706390117E-3
3.794669758E1,8.635327960E-3
3.795663458E1,2.281353770E-2
3.796657058E1,1.300320262E-3
3.797650758E1,2.964931196E-3
3.798644308E1,1.498603913E-2
3.799638008E1,6.551718344E-3
3.800631708E1,8.481098511E-3
3.801625308E1,4.825245696E-3
3.802619008E1,6.725234468E-3
3.803612708E1,1.269823835E-2
3.804606308E1,8.269968345E-3
3.805600008E1,-2.690715054E-3
3.806593708E1,1.905038848E-2
3.807587308E1,9.839507206E-3
3.808581008E1,5.431044647E-3
3.809574708E1,7.821349860E-3
3.810568308E1,6.475626882E-3
3.811562008E1,-2.978242747E-4
3.812555608E1,7.465948784E-3
3.813549308E1,-1.618993515E-4
3.814543008E1,1.212340680E-2
3.815536608E1,1.236281830E-2
3.816530308E1,6.519371364E-3
3.817524008E1,1.219605389E-2
3.818517608E1,1.538145252E-2
3.819511308E1,1.418959354E-3
3.820505008E1,5.066827065E-3
3.821498608E1,1.493368828E-2
3.822492308E1,8.812608230E-3
3.823485908E1,-3.282978614E-3
3.824479608E1,8.518520691E-3
3.825473308E1,4.125480163E-3
3.826466908E1,9.622931820E-3
3.827460608E1,1.038685684E-2
3.828454308E1,1.157134285E-2
3.829447908E1,8.718682760E-3
3.830441608E1,1.176899701E-2
3.831435308E1,1.624367929E-2
3.832428908E1,5.937797246E-3
3.833422608E1,7.238962613E-3
3.834416308E1,7.916522431E-3
3.835409908E1,3.304489972E-3
3.836403608E1,1.146923128E-2
3.837397208E1,-1.324851616E-2
3.838390908E1,1.029717517E-3
3.839384608E1,9.028804461E-3
3.840378208E1,1.301528991E-2
3.841371908E1,1.287878484E-2
3.842365608E1,1.314306071E-2
3.843359208E1,1.886631539E-3
3.844352908E1,3.368777367E-3
3.845346608E1,1.535157233E-2
3.846340208E1,2.033425888E-2
3.847333908E1,2.737023175E-2
3.848327508E1,6.109792180E-3
3.849321208E1,1.006497219E-2
3.850314908E1,1.504996107E-2
3.851308508E1,1.135069268E-2
3.852302208E1,-4.850900355E-3
3.853295908E1,1.001413796E-2
3.854289508E1,1.693556478E-2
3.855283208E1,1.708422567E-2
3.856276908E1,2.846360626E-3
3.857270508E1,2.038024175E-2
3.858264208E1,7.793854242E-3
3.859257908E1,1.723180848E-2
3.860251508E1,1.853089535E-2
3.861245208E1,1.331786962E-2
3.862238808E1,1.911532455E-3
3.863232508E1,3.240316780E-3
3.864226208E1,6.535145142E-3
3.865219808E1,9.858789314E-3
3.866213508E1,2.132946412E-2
3.867207208E1,1.428881805E-2
3.868200808E1,5.983021804E-3
3.869194508E1,6.009005369E-3
3.870188208E1,1.701165168E-2
3.871181808E1,-3.584530489E-3
3.872175508E1,8.824398592E-3
3.873169108E1,7.844702178E-3
3.874162808E1,1.226624331E-2
3.875156508E1,1.010346331E-2
3.876150108E1,-1.534665702E-4
3.877143808E1,-1.392409340E-3
3.878137508E1,-5.484628896E-3
3.879131108E1,8.639242854E-3
3.880124808E1,7.761890986E-3
3.881118508E1,9.667740678E-3
3.882112108E1,1.545439654E-2
3.883105808E1,1.422883384E-2
3.884099408E1,1.432807205E-2
3.885093108E1,1.553848224E-2
3.886086808E1,1.579644495E-2
3.887080408E1,8.230750887E-3
3.888074108E1,-8.195128553E-3
3.889067808E1,9.122337070E-3
3.890061408E1,3.179848348E-3
3.891055108E1,7.032843693E-3
3.892048808E1,1.378385159E-2
3.893042408E1,-5.042520007E-3
3.894036108E1,-2.681341236E-3
3.895029708E1,4.749218188E-3
3.896023408E1,2.123765370E-2
3.897017108E1,-8.541521262E-3
3.898010708E1,7.308736341E-3
3.899004396E1,2.391940607E-3
3.899998096E1,1.022221204E-2
3.900991696E1,-4.761086209E-3
3.901985396E1,1.489388153E-2
3.902979096E1,1.384304551E-2
3.903972696E1,8.156276545E-3
3.904966396E1,6.292709531E-3
3.905959996E1,1.667689858E-2
3.906953696E1,1.783073695E-2
3.907947396E1,2.031340077E-2
3.908940996E1,8.812466618E-3
3.909934696E1,1.893235238E-2
3.910928396E1,2.244588031E-2
3.911921996E1,1.514296378E-2
3.912915696E1,9.170896369E-3
3.913909396E1,7.626244719E-3
3.914902996E1,9.559462122E-3
3.915896696E1,6.448231763E-3
3.916890296E1,4.975770386E-3
3.917883996E1,1.024083177E-2
3.918877696E1,2.640397022E-3
3.919871296E1,6.432645279E-3
3.920864996E1,2.341758706E-2
3.921858696E1,2.356217774E-3
3.922852296E1,2.037593400E-2
3.923845996E1,3.042423705E-2
3.924839696E1,7.797179846E-3
3.925833296E1,2.051672399E-2
3.926826996E1,6.741780262E-3
3.927820596E1,4.279695908E-3
3.928814296E1,2.837735983E-3
3.929807996E1,8.137834975E-3
3.930801596E1,3.468992248E-2
3.931795296E1,8.599500060E-3
3.932788996E1,1.000743193E-2
3.933782596E1,3.868111311E-3
3.934776296E1,2.282746595E-2
3.935769996E1,-4.188168710E-3
3.936763596E1,1.286533624E-2
3.937757296E1,9.731251490E-3
3.938750896E1,-2.564163948E-3
3.939744596E1,1.248084070E-2
3.940738296E1,1.405151702E-2
3.941731896E1,-2.785197836E-3
3.942725596E1,-1.766046421E-3
3.943719296E1,2.395965136E-2
3.944712896E1,5.522594685E-3
3.945706596E1,4.862188222E-4
3.946700296E1,1.976322345E-3
3.947693896E1,1.076671116E-2
3.948687596E1,4.613960213E-3
3.949681196E1,8.364039995E-3
3.950674896E1,2.514833091E-2
3.951668596E1,1.937060120E-2
3.952662196E1,1.950763161E-2
3.953655896E1,4.877098622E-3
3.954649596E1,2.220860213E-2
3.955643196E1,1.262551817E-2
3.956636896E1,2.146330141E-2
3.957630596E1,8.891289826E-3
3.958624196E1,1.613062246E-2
3.959617896E1,1.612599950E-2
3.960611496E1,1.556594131E-2
3.961605196E1,7.572148838E-3
3.962598896E1,6.878198544E-3
3.963592496E1,4.492242197E-3
3.964586196E1,-7.027873560E-3
3.965579896E1,9.495891924E-3
3.966573496E1,1.434629435E-2
3.967567196E1,2.950322750E-2
3.968560896E1,2.128478774E-2
3.969554496E1,-9.455057345E-3
3.970548196E1,5.854584058E-3
3.971541796E1,1.236331623E-2
3.972535496E1,1.982011504E-2
3.973529196E1,1.718713210E-2
3.974522796E1,1.650613247E-2
3.975516496E1,2.292094375E-2
3.976510196E1,9.940097588E-3
3.977503796E1,8.284910722E-4
3.978497496E1,1.304994837E-2
3.979491196E1,7.063061921E-3
3.980484796E1,2.366680178E-2
3.981478496E1,2.269775826E-2
3.982472096E1,-6.761944019E-3
3.983465796E1,-1.134583675E-3
3.984459496E1,1.987981602E-2
3.985453096E1,1.287738699E-2
3.986446796E1,9.709625929E-3
3.987440496E1,2.491306728E-2
3.988434096E1,1.989508274E-2
3.989427796E1,6.187980417E-3
3.990421496E1,1.327507074E-2
3.991415096E1,1.601059922E-2
3.992408796E1,4.583458761E-3
3.993402396E1,4.024145175E-3
3.994396096E1,2.718524046E-2
3.995389796E1,-4.760350739E-3
3.996383396E1,7.928819857E-3
3.997377096E1,9.202973829E-3
3.998370837E1,5.356250536E-3
3.999364437E1,-5.841404982E-3
4.000358137E1,3.342601941E-3
4.001351837E1,9.994266559E-3
4.002345437E1,2.046114803E-2
4.003339137E1,5.290231816E-3
4.004332737E1,9.322019485E-3
4.005326437E1,1.821386205E-2
4.006320137E1,3.404582427E-3
4.007313737E1,7.914759130E-3
4.008307437E1,1.215469397E-2
4.009301137E1,1.412345148E-2
4.010294737E1,8.713050247E-3
4.011288438E1,1.690837066E-2
4.012282038E1,2.274026478E-2
4.013275738E1,1.136092531E-2
4.014269438E1,4.802409578E-3
4.015263037E1,2.352926431E-2
4.016256737E1,3.327498309E-2
4.017250437E1,1.630925490E-3
4.018244037E1,-1.181788978E-2
4.019237737E1,4.831088344E-3
4.020231437E1,2.079280393E-2
4.021225037E1,-1.028059283E-4
4.022218737E1,1.554183982E-2
4.023212337E1,1.679366017E-3
4.024206037E1,3.802517429E-3
4.025199737E1,1.165809634E-2
4.026193337E1,1.463137809E-3
4.027187037E1,7.368715983E-3
4.028180737E1,2.779802866E-3
4.029174337E1,3.096551106E-2
4.030168037E1,6.480222428E-4
4.031161737E1,1.970528120E-2
4.032155337E1,1.362983685E-2
4.033149037E1,2.508042555E-2
4.034142637E1,8.412352614E-3
4.035136337E1,-1.119031452E-2
4.036130037E1,9.124031849E-3
4.037123637E1,1.666688979E-2
4.038117337E1,8.275267384E-3
4.039111037E1,1.382449431E-2
4.040104637E1,1.000846890E-2
4.041098337E1,7.638172125E-3
4.042091938E1,8.308345266E-3
4.043085638E1,1.102776649E-2
4.044079338E1,-1.141349087E-4
4.045072938E1,1.552718980E-3
4.046066638E1,1.877119307E-2
4.047060337E1,2.417170885E-2
4.048053937E1,1.942929262E-2
4.049047637E1,1.082852262E-2
4.050041337E1,5.147701367E-3
4.051034937E1,1.324390234E-2
4.052028637E1,9.662898453E-3
4.053022237E1,3.260644991E-4
4.054015937E1,1.162020821E-2
4.055009637E1,8.478499241E-3
4.056003237E1,1.970575629E-3
4.056996937E1,2.865633597E-3
4.057990637E1,1.157624446E-2
4.058984237E1,2.512826309E-2
4.059977937E1,-8.496278431E-4
4.060971637E1,1.656141607E-3
4.061965237E1,7.339160135E-3
4.062958937E1,1.157346703E-2
4.063952537E1,6.076855911E-4
4.064946237E1,-1.815459961E-3
4.065939937E1,7.155936719E-3
4.066933537E1,2.072359208E-2
4.067927237E1,5.514285243E-3
4.068920937E1,1.160283559E-2
4.069914537E1,1.746471496E-2
4.070908237E1,1.140951659E-3
