Time (s),Linear Acceleration x (m/s^2)
1.786891667E-2,-2.584597226E-3
2.780291667E-2,8.445937559E-3
3.773691667E-2,-7.397513520E-3
4.767091667E-2,-1.649901532E-3
5.760491667E-2,1.435655896E-3
6.753891666E-2,2.468054909E-3
7.747291667E-2,1.071823865E-2
8.740691667E-2,5.760914404E-3
9.734191667E-2,-6.975600366E-3
1.072759167E-1,-1.182051189E-4
1.172099167E-1,8.713721763E-3
1.271439167E-1,6.112807151E-3
1.370779167E-1,2.301244810E-3
1.470119167E-1,9.544081204E-3
1.569459167E-1,-1.130138878E-3
1.668799167E-1,4.622772150E-3
1.768139167E-1,-2.703441884E-3
1.867479167E-1,-1.731872186E-4
1.966810417E-1,-9.926927648E-4
2.066150417E-1,1.993005183E-3
2.165490417E-1,-3.654052969E-3
2.264830417E-1,8.745004367E-3
2.364180417E-1,7.321517989E-3
2.463520417E-1,-2.610726971E-3
2.562860417E-1,7.765029296E-3
2.662200417E-1,3.666898571E-3
2.761540417E-1,1.517060101E-3
2.860880417E-1,-8.449957520E-4
2.960220417E-1,-8.292758781E-3
3.059560417E-1,7.627181187E-3
3.158900417E-1,5.805225335E-3
3.258240417E-1,7.957822960E-3
3.357580417E-1,3.045211639E-3
3.456920417E-1,-1.425441541E-3
3.556260417E-1,9.827415347E-3
3.655600417E-1,5.762357935E-3
3.754950417E-1,1.507960372E-3
3.854290417E-1,5.603057854E-3
3.953630417E-1,-6.245739944E-4
4.052970417E-1,-7.836200874E-3
4.152310417E-1,1.093526172E-2
4.251650417E-1,7.116847169E-3
4.350990417E-1,1.698177606E-3
4.450330417E-1,-2.933602910E-3
4.549670417E-1,4.797640443E-4
4.649010417E-1,1.366640478E-3
4.748350417E-1,4.386782181E-3
4.847690417E-1,5.223025382E-3
4.947030417E-1,-3.502756264E-3
5.046370417E-1,3.285587020E-3
5.145720417E-1,2.658199053E-3
5.245060417E-1,3.084223531E-4
5.344400417E-1,-1.308661681E-3
5.443740417E-1,-3.287012279E-3
5.543080417E-1,4.559183680E-4
5.642420417E-1,1.387014370E-3
5.741760417E-1,2.761804406E-3
5.841100417E-1,5.445164759E-3
5.940440417E-1,7.246107180E-3
6.039780417E-1,2.358730249E-3
6.139120417E-1,1.649335083E-3
6.238460417E-1,4.618185740E-3
6.337800417E-1,2.087730076E-3
6.437140417E-1,-8.666669950E-4
6.536490417E-1,-2.030226365E-3
6.635830417E-1,6.409845706E-3
6.735170417E-1,1.173243821E-3
6.834510417E-1,-8.607832342E-4
6.933850417E-1,-9.201507457E-4
7.033190417E-1,3.897534683E-3
7.132530417E-1,-2.578110471E-3
7.231870417E-1,2.364577465E-3
7.331210417E-1,4.710407294E-3
7.430550417E-1,3.258306105E-3
7.529890417E-1,5.605360195E-3
7.629230417E-1,-5.831775349E-3
7.728570417E-1,-2.181961611E-3
7.827910417E-1,5.027801469E-3
7.927260417E-1,4.231045246E-3
8.026600417E-1,-2.341590598E-3
8.125940417E-1,5.662151277E-3
8.225280417E-1,-4.582316726E-3
8.324620417E-1,3.291982412E-3
8.423960417E-1,1.130650509E-3
8.523300417E-1,-1.971132942E-3
8.622640417E-1,-7.978891209E-4
8.721980417E-1,2.201549783E-3
8.821320417E-1,4.445601515E-3
8.920660417E-1,5.592002962E-3
9.020000417E-1,8.723040763E-3
9.119340417E-1,-3.850464597E-3
9.218680417E-1,-4.480666537E-3
9.318030417E-1,-8.607284166E-3
9.417370417E-1,1.057341043E-3
9.516710417E-1,-4.822491109E-4
9.616050417E-1,7.820833661E-4
9.715390417E-1,-1.256018467E-3
9.814730417E-1,-8.098046500E-3
9.914070417E-1,1.385534294E-3
1.001341042E0,7.708859481E-3
1.011275042E0,-2.384037729E-3
1.021209042E0,-4.924159572E-3
1.031143042E0,8.093807269E-3
1.041077042E0,5.205538552E-3
1.051011042E0,2.065985743E-3
1.060945042E0,1.583827995E-3
1.070880042E0,7.548645772E-3
1.080814042E0,6.640554909E-3
1.090748042E0,-4.742311165E-3
1.100682042E0,2.667390145E-3
1.110616042E0,8.349038232E-3
1.120550042E0,-4.210378993E-3
1.130484042E0,-3.599728681E-3
1.140418042E0,7.378711067E-3
1.150352042E0,-6.797936372E-4
1.160286042E0,9.945565648E-4
1.170220042E0,3.188906964E-3
1.180154042E0,1.762405615E-3
1.190088042E0,4.931048322E-3
1.200023667E0,2.806663513E-5
1.209957667E0,1.977948602E-3
1.219891667E0,3.264829405E-3
1.229825667E0,-3.150205705E-3
1.239759667E0,2.111575752E-4
1.249693667E0,-1.049831025E-3
1.259627667E0,-4.235522021E-3
1.269561667E0,7.272876464E-3
1.279495667E0,4.054002520E-3
1.289429667E0,6.389691085E-3
1.299363667E0,-2.041701525E-3
1.309297667E0,1.303709820E-3
1.319231667E0,6.462379284E-3
1.329165667E0,2.413876802E-3
1.339100667E0,1.016065182E-2
1.349034667E0,4.134420007E-3
1.358968667E0,-5.881513227E-3
1.368902667E0,5.247876048E-4
1.378836667E0,-3.703827392E-3
1.388770667E0,4.895051401E-3
1.398704667E0,-4.219131544E-4
1.408638667E0,1.314625841E-2
1.418572667E0,-3.463433739E-3
1.428506667E0,-1.790819429E-3
1.438440667E0,8.015984483E-3
1.448374667E0,8.903080188E-3
1.458308667E0,3.451008406E-3
1.468242667E0,1.193011064E-2
1.478176667E0,8.158108369E-3
1.488111667E0,-1.385168843E-3
1.498045667E0,3.345082439E-3
1.507979667E0,-6.772537529E-4
1.517913667E0,-6.437236257E-4
1.527847667E0,-6.391828973E-3
1.537781667E0,-3.107064217E-3
1.547715667E0,4.479917362E-3
1.557649667E0,1.907964740E-3
1.567583667E0,4.088537637E-3
1.577517667E0,9.192389455E-3
1.587451667E0,4.958804324E-4
1.597385667E0,4.669367149E-4
1.607320667E0,-1.977765877E-3
1.617254667E0,1.200597826E-2
1.627188667E0,4.686506800E-3
1.637122667E0,-4.764494039E-3
1.647056667E0,1.599779930E-3
1.656990667E0,4.310731832E-3
1.666924667E0,4.198702835E-3
1.676858667E0,1.798895895E-3
1.686792667E0,-3.858796880E-4
1.696726667E0,2.130122390E-3
1.706660667E0,-3.275701571E-3
1.716594667E0,-3.116693851E-3
1.726528667E0,-6.928091738E-3
1.736462667E0,3.424220849E-3
1.746396667E0,-2.968667932E-3
1.756331667E0,5.228159968E-3
1.766265667E0,-1.979520041E-3
1.776199667E0,9.428817965E-3
1.786133667E0,-2.527495511E-3
1.796067667E0,-3.062515743E-3
1.806001667E0,7.347940095E-4
1.815935667E0,8.602515031E-3
1.825869667E0,3.889768850E-3
1.835803667E0,1.088861190E-4
1.845737667E0,8.893523645E-3
1.855671667E0,3.691895418E-3
1.865605667E0,5.793457814E-3
1.875539667E0,-1.284523644E-3
1.885473667E0,4.701892287E-3
1.895408667E0,-5.852825325E-3
1.905342667E0,6.649837364E-3
1.915276667E0,6.784177143E-3
1.925210667E0,-5.925878976E-3
1.935144667E0,1.352862976E-3
1.945078667E0,4.295328073E-3
1.955012667E0,2.806754876E-3
1.964946667E0,4.112182315E-3
1.974880667E0,1.002669577E-3
1.984814667E0,-6.737289783E-3
1.994748667E0,4.648901895E-4
2.004682667E0,2.344952747E-3
2.014616667E0,3.410096169E-3
2.024550667E0,6.100655906E-4
2.034485667E0,-2.684822157E-3
2.044419667E0,2.121461201E-3
2.054353667E0,1.172129195E-3
2.064287667E0,7.461394351E-3
2.074221667E0,-5.815969594E-4
2.084155667E0,-7.765650563E-4
2.094089667E0,9.724979438E-3
2.104023667E0,5.193149764E-3
2.113957667E0,-5.962149985E-3
2.123891667E0,3.804253321E-3
2.133825667E0,7.648103256E-3
2.143759667E0,-1.630002726E-3
2.153693667E0,4.823806733E-3
2.163627667E0,6.722562108E-3
2.173562667E0,2.654233910E-3
2.183496667E0,-1.456596237E-3
2.193430667E0,4.132391755E-3
2.203364458E0,-3.232633173E-3
2.213298458E0,7.521584127E-3
2.223232458E0,1.054117765E-2
2.233166458E0,1.240797434E-3
2.243100458E0,5.541826542E-3
2.253034458E0,3.623227179E-3
2.262968458E0,3.244948871E-3
2.272902458E0,2.100868039E-3
2.282836458E0,1.264825836E-3
2.292770458E0,1.192466542E-2
2.302705458E0,3.532266431E-4
2.312639458E0,6.594946627E-3
2.322573458E0,5.227867607E-3
2.332507458E0,-7.060860079E-3
2.342441458E0,-4.583212081E-3
2.352375458E0,1.673345212E-3
2.362309458E0,-6.985631995E-3
2.372243458E0,3.061254937E-3
2.382177458E0,1.535497103E-3
2.392111458E0,-2.040879261E-3
2.402045458E0,7.955685072E-4
2.411979458E0,-1.203941703E-3
2.421913458E0,-3.848947976E-3
2.431847458E0,6.988519058E-4
2.441782458E0,4.218016919E-3
2.451716458E0,8.092053104E-3
2.461650458E0,-1.179584395E-3
2.471584458E0,2.645389996E-3
2.481518458E0,1.214740779E-3
2.491452458E0,-3.397250567E-3
2.501386458E0,1.256749369E-3
2.511320458E0,5.288148746E-3
2.521254458E0,8.534139153E-3
2.531188458E0,2.494075019E-3
2.541122458E0,6.904045064E-3
2.551056458E0,6.316966340E-3
2.560990458E0,7.372516673E-3
2.570924458E0,-7.859388739E-4
2.580859458E0,-2.327922732E-3
2.590793458E0,4.327506032E-3
2.600727458E0,-2.921232395E-4
2.610661458E0,1.366402935E-3
2.620595458E0,1.047857590E-3
2.630529458E0,5.169358905E-3
2.640463458E0,2.950815652E-3
2.650397458E0,2.310070451E-3
2.660331458E0,9.250185527E-3
2.670265458E0,4.841531105E-3
2.680199458E0,3.001156524E-3
2.690133458E0,-2.009468749E-3
2.700067458E0,-1.605024152E-3
2.710001458E0,4.431367200E-3
2.719936458E0,4.819896407E-3
2.729870458E0,-6.673865765E-4
2.739804458E0,4.543231744E-3
2.749738458E0,-9.452389553E-4
2.759672458E0,-7.533881553E-3
2.769606458E0,-8.829971720E-3
2.779540458E0,-2.169024646E-3
2.789474458E0,2.205094658E-3
2.799408458E0,1.706582978E-3
2.809342458E0,-1.735618059E-3
2.819276458E0,-1.385662202E-3
2.829210458E0,-1.010746043E-3
2.839144458E0,-1.077989023E-3
2.849078458E0,3.223094903E-4
2.859013458E0,-3.608755320E-3
2.868947458E0,6.604393534E-3
2.878881458E0,1.843608823E-3
2.888815458E0,8.802983165E-4
2.898749458E0,1.014729459E-2
2.908683458E0,1.108778268E-4
2.918617458E0,3.460747674E-3
2.928551458E0,3.373331800E-3
2.938485458E0,8.276368305E-4
2.948419458E0,4.886043034E-3
2.958353458E0,1.002781039E-2
2.968287458E0,1.373803318E-3
2.978221458E0,-9.780016355E-4
2.988155458E0,1.636452936E-3
2.998090458E0,-3.492614999E-3
3.008024458E0,-1.100208443E-3
3.017958458E0,-1.867673770E-3
3.027892458E0,1.964006647E-3
3.037826458E0,-2.210740875E-3
3.047760458E0,-4.675013367E-3
3.057694458E0,5.800035931E-3
3.067628458E0,8.476178627E-3
3.077562458E0,4.489747994E-3
3.087496458E0,-1.050159931E-3
3.097430458E0,2.448174376E-3
3.107364458E0,-6.373099610E-4
3.117298458E0,6.491377819E-3
3.127232458E0,1.155638220E-2
3.137167458E0,8.434827849E-3
3.147101458E0,3.800324723E-4
3.157035458E0,6.359705832E-3
3.166969458E0,2.518816050E-3
3.176903458E0,8.054539561E-4
3.186837458E0,8.321866952E-4
3.196771458E0,1.769879088E-3
3.206705417E0,8.121051639E-4
3.216639417E0,-4.262072034E-4
3.226573417E0,2.977109849E-3
3.236507417E0,-6.314481273E-3
3.246441417E0,-5.319687165E-4
3.256375417E0,1.901934799E-3
3.266310417E0,1.668722257E-3
3.276244417E0,5.813283529E-3
3.286178417E0,2.458352186E-3
3.296112417E0,7.660510316E-3
3.306046417E0,3.113441337E-3
3.315980417E0,1.414843462E-4
3.325914417E0,7.789788600E-3
3.335848417E0,4.295693524E-3
3.345782417E0,2.335578930E-3
3.355716417E0,1.719812304E-4
3.365650417E0,-1.756668035E-3
3.375584417E0,5.736301281E-4
3.385518417E0,6.007283181E-4
3.395452417E0,-8.322451673E-3
3.405386417E0,-4.145328719E-3
3.415321417E0,2.846881393E-3
3.425255417E0,-1.427433249E-3
3.435189417E0,1.323420418E-2
3.445123417E0,7.354700938E-5
3.455057417E0,-5.573913138E-3
3.464991417E0,4.041759912E-3
3.474925417E0,3.345996067E-3
3.484859417E0,1.037880778E-4
3.494793417E0,4.180448558E-3
3.504727417E0,-1.151207127E-3
3.514661417E0,1.670275424E-3
3.524595417E0,-2.425717413E-3
3.534529417E0,2.592892963E-3
3.544463417E0,-8.744145557E-4
3.554398417E0,4.390034694E-3
3.564332417E0,-4.036954232E-4
3.574266417E0,3.866909891E-3
3.584200417E0,5.640443489E-3
3.594134417E0,-1.990849022E-3
3.604068417E0,-1.218066383E-3
3.614002417E0,1.533505395E-3
3.623936417E0,2.232503481E-3
3.633870417E0,4.919079803E-3
3.643804417E0,6.219336111E-3
3.653738417E0,3.156838641E-3
3.663672417E0,-1.748317480E-3
3.673606417E0,8.176490553E-3
3.683540417E0,-3.578696977E-3
3.693475417E0,-8.584041484E-3
3.703409417E0,4.996263050E-3
3.713343417E0,-5.949706379E-3
3.723277417E0,-2.595231850E-3
3.733211417E0,5.481764674E-7
3.743145417E0,4.985847697E-4
3.753079417E0,-2.803392727E-3
3.763013417E0,-1.840593852E-3
3.772947417E0,5.764294825E-3
3.782881417E0,-1.854681987E-3
3.792815417E0,2.085701823E-3
3.802749417E0,4.864152521E-3
3.812683417E0,1.395054292E-3
3.822618417E0,8.238361403E-4
3.832552417E0,2.943342179E-3
3.842486417E0,1.712667737E-3
3.852420417E0,-4.832723737E-4
3.862354417E0,3.991656583E-3
3.872288417E0,-6.271138787E-5
3.882222417E0,6.341908369E-3
3.892156417E0,3.912682626E-3
3.902090417E0,8.165910747E-3
3.912024417E0,2.573505789E-3
3.921958417E0,3.041648492E-4
3.931892417E0,2.431144360E-3
3.941826417E0,-7.090900149E-3
3.951760417E0,-2.371959575E-4
3.961695417E0,-1.621250175E-3
3.971629417E0,-6.266789921E-3
3.981563417E0,2.914526369E-3
3.991497417E0,4.595765322E-3
4.001431417E0,1.018535631E-2
4.011365417E0,7.615395393E-3
4.021299417E0,5.892897025E-5
4.031233417E0,-3.341555838E-3
4.041167417E0,9.985217080E-3
4.051101417E0,1.880062558E-4
4.061035417E0,-4.386508092E-4
4.070969417E0,3.947546650E-3
4.080903417E0,4.881109446E-3
4.090837417E0,4.856971409E-3
4.100772417E0,6.540476158E-3
4.110706417E0,4.925146289E-3
4.120640417E0,-1.062603537E-3
4.130574417E0,6.046386436E-5
4.140508417E0,6.066321786E-3
4.150442417E0,-2.824534066E-3
4.160376417E0,-3.549259901E-4
4.170310417E0,6.562969666E-3
4.180244417E0,5.170765892E-3
4.190178417E0,-1.510390621E-3
4.200112417E0,1.578675136E-3
4.210047167E0,-3.691054881E-6
4.219981167E0,4.005159996E-4
4.229915167E0,-4.367687367E-4
4.239850167E0,3.732624929E-3
4.249784167E0,-2.549934201E-3
4.259718167E0,5.341248773E-3
4.269652167E0,-4.344682228E-3
4.279586167E0,2.865007762E-3
4.289520167E0,-1.077915933E-3
4.299454167E0,-7.548371684E-3
4.309388167E0,-3.997942340E-3
4.319322167E0,-6.885297429E-3
4.329256167E0,5.682031810E-3
4.339190167E0,8.076667618E-3
4.349124167E0,1.015776476E-2
4.359058167E0,5.663174540E-3
4.368992167E0,5.844730586E-3
4.378926167E0,6.087097675E-3
4.388861167E0,1.445925068E-2
4.398795167E0,1.024306102E-2
4.408729167E0,9.969283417E-3
4.418663167E0,-1.537141632E-3
4.428597167E0,3.449473511E-3
4.438531167E0,-2.297699936E-3
4.448465167E0,2.800030578E-3
4.458399167E0,8.417066932E-3
4.468333167E0,-4.662715942E-3
4.478267167E0,3.385647498E-3
4.488201167E0,8.014157228E-4
4.498135167E0,1.425916627E-3
4.508069167E0,3.846097458E-3
4.518003167E0,6.277826540E-3
4.527938167E0,1.086960845E-2
4.537872167E0,7.329667546E-3
4.547806167E0,1.303671448E-2
4.557740167E0,8.386752773E-3
4.567674167E0,-1.501564980E-3
4.577608167E0,2.112452835E-3
4.587542167E0,2.826379593E-3
4.597476167E0,5.077283531E-3
4.607410167E0,9.470771737E-3
4.617344167E0,5.659337305E-3
4.627278167E0,1.266671363E-3
4.637212167E0,-3.657086212E-3
4.647146167E0,5.853592772E-3
4.657081167E0,1.257187910E-3
4.667015167E0,-9.943555668E-4
4.676949167E0,4.498774633E-3
4.686883167E0,5.617420077E-3
4.696817167E0,-3.997010440E-3
4.706751167E0,-5.549921282E-4
4.716685167E0,9.168397598E-3
4.726619167E0,8.494907990E-4
4.736553167E0,1.503337417E-2
4.746487167E0,5.751248226E-3
4.756421167E0,-1.088239923E-3
4.766355167E0,2.767724711E-3
4.776289167E0,-5.054150485E-3
4.786223167E0,3.047020622E-3
4.796158167E0,3.737083431E-3
4.806092167E0,-1.580283120E-3
4.816026167E0,4.971046932E-4
4.825960167E0,1.762076709E-3
4.835894167E0,-2.663224004E-3
4.845828167E0,4.293171912E-3
4.855762167E0,7.943862732E-3
4.865696167E0,-5.016746577E-3
4.875630167E0,2.015060149E-3
4.885564167E0,5.833017882E-3
4.895498167E0,2.504252829E-4
4.905432167E0,3.306527361E-3
4.915366167E0,6.698095165E-3
4.925300167E0,-3.233016897E-3
4.935235167E0,-2.957978491E-3
4.945169167E0,5.327909812E-3
4.955103167E0,4.276196714E-3
4.965037167E0,1.425094362E-3
4.974971167E0,-4.324015975E-3
4.984905167E0,-2.081389502E-3
4.994839167E0,2.289294563E-3
5.004773167E0,-6.657895558E-3
5.014707167E0,8.370015118E-3
5.024641167E0,1.911253799E-3
5.034575167E0,-3.989208061E-3
5.044509167E0,-1.352716796E-4
5.054443167E0,5.596881732E-3
5.064377167E0,-2.128130682E-3
5.074312167E0,6.619413570E-4
5.084246167E0,-1.176258791E-3
5.094180167E0,-7.847877033E-3
5.104114167E0,-2.079233341E-4
5.114048167E0,8.806674220E-3
5.123982167E0,-3.988349251E-4
5.133916167E0,-5.039203539E-4
5.143850167E0,2.518541962E-3
5.153784167E0,1.242977349E-2
5.163718167E0,1.323964940E-2
5.173652167E0,-1.427177433E-3
5.183586167E0,-8.942037262E-4
5.193520167E0,8.515190519E-4
5.203454917E0,2.424164247E-3
5.213388917E0,-3.575133830E-3
5.223322917E0,-6.710027140E-3
5.233256917E0,-2.027357575E-3
5.243190917E0,5.786057431E-3
5.253124917E0,6.116936747E-3
5.263058917E0,2.147517856E-3
5.272992917E0,-3.792650253E-3
5.282926917E0,1.374004316E-3
5.292860917E0,1.893511154E-3
5.302794917E0,-2.620539330E-3
5.312728917E0,-1.161494572E-3
5.322662917E0,-2.114554178E-3
5.332596917E0,-6.042147204E-3
5.342530917E0,-1.719812304E-3
5.352465917E0,-4.258307889E-3
5.362399917E0,-5.092559382E-4
5.372333917E0,3.234789334E-3
5.382267917E0,-9.826519992E-3
5.392201917E0,-1.840338036E-3
5.402135917E0,2.258815952E-3
5.412069917E0,3.717988618E-3
5.422003917E0,-2.238003518E-3
5.431937917E0,-4.398805518E-3
5.441871917E0,2.315533943E-3
5.451805917E0,-7.389638051E-3
5.461739917E0,2.568243295E-3
5.471673917E0,-6.106393486E-3
5.481608917E0,-2.137011141E-3
5.491542917E0,5.058170445E-3
5.501476917E0,1.743438710E-3
5.511410917E0,-2.204199303E-3
5.521344917E0,-2.570929360E-3
5.531278917E0,2.162556164E-3
5.541212917E0,7.695301250E-4
5.551146917E0,4.809334874E-5
5.561080917E0,-2.569924369E-3
5.571014917E0,-6.552170590E-4
5.580948917E0,5.081376582E-3
5.590882917E0,7.064679042E-3
5.600816917E0,5.649799034E-3
5.610750917E0,2.314273138E-3
5.620685917E0,4.205902219E-3
5.630619917E0,-3.455539998E-3
5.640553917E0,-2.109894678E-3
5.650487917E0,-1.932303775E-3
5.660421917E0,5.326685552E-3
5.670355917E0,9.788969904E-3
5.680289917E0,4.364562761E-3
5.690223917E0,9.444715083E-4
5.700157917E0,3.629001305E-3
5.710091917E0,-5.299715269E-3
5.720025917E0,-5.358498059E-3
5.729959917E0,-1.523144860E-3
5.739893917E0,-4.943674654E-3
5.749827917E0,-8.041200601E-3
5.759762917E0,1.472639535E-3
5.769696917E0,-5.634797271E-3
5.779630917E0,3.907054681E-3
5.789564917E0,9.065175969E-3
5.799498917E0,1.704938449E-3
5.809432917E0,-9.112629779E-3
5.819366917E0,-1.127577066E-2
5.829300917E0,-6.245557219E-4
5.839234917E0,4.456199594E-3
5.849168917E0,2.786380984E-3
5.859102917E0,4.267718252E-3
5.869036917E0,-6.380774081E-5
5.878970917E0,-1.268187985E-3
5.888904917E0,1.054527070E-3
5.898839917E0,4.110939782E-3
5.908773917E0,-8.618795872E-4
5.918707917E0,-7.539966311E-3
5.928641917E0,1.745229419E-3
5.938575917E0,-9.075097963E-3
5.948509917E0,-6.753534079E-3
5.958443917E0,-2.406330239E-3
5.968377917E0,9.837940335E-4
5.978311917E0,-1.047344131E-2
5.988245917E0,5.801826641E-3
5.998179917E0,-2.888159081E-3
6.008113917E0,-3.183900286E-3
6.018047917E0,-4.311919548E-3
6.027982917E0,4.241314419E-3
6.037916917E0,-7.863317337E-3
6.047850917E0,-8.531946447E-3
6.057784917E0,-4.254781287E-3
6.067718917E0,-6.492930986E-3
6.077652917E0,-8.551552892E-4
6.087586917E0,5.512882825E-3
6.097520917E0,-1.742470264E-4
6.107454917E0,3.092555813E-3
6.117388917E0,6.157775894E-3
6.127322917E0,1.186747234E-3
6.137256917E0,-8.256542590E-3
6.147190917E0,-5.138185937E-3
6.157124917E0,9.683354571E-4
6.167059917E0,3.122778609E-5
6.176993917E0,2.975995224E-3
6.186927917E0,1.277908981E-3
6.196861917E0,3.776625227E-3
6.206795833E0,6.561306864E-4
6.216729833E0,-3.335799985E-3
6.226663833E0,-9.861694649E-4
6.236597833E0,-2.385225445E-3
6.246531833E0,-1.021070033E-4
6.256465833E0,5.437526833E-3
6.266399833E0,-1.974659543E-3
6.276333833E0,3.820643798E-3
6.286267833E0,2.664283812E-3
6.296201833E0,1.850241758E-3
6.306136833E0,1.959091332E-3
6.316070833E0,-8.883747831E-4
6.326004833E0,-3.564097211E-3
6.335938833E0,-1.576190069E-3
6.345872833E0,-3.696116377E-3
6.355806833E0,-5.167476833E-3
6.365740833E0,3.346873149E-3
6.375674833E0,-1.097365234E-2
6.385608833E0,4.429265857E-3
6.395542833E0,1.483328976E-3
6.405476833E0,-6.246982478E-3
6.415410833E0,-3.958382271E-4
6.425344833E0,-2.288819477E-4
6.435278833E0,5.662863906E-3
6.445213833E0,5.019158553E-3
6.455147833E0,2.327045649E-3
6.465081833E0,1.953463387E-3
6.475015833E0,1.283043567E-3
6.484949833E0,2.642429844E-3
6.494883833E0,3.183078021E-3
6.504817833E0,-2.213956844E-3
6.514751833E0,-2.341371328E-3
6.524685833E0,-1.499701180E-3
6.534619833E0,5.108712316E-3
6.544553833E0,1.909481362E-5
6.554487833E0,-3.436152823E-3
6.564421833E0,-3.098348211E-3
6.574356833E0,2.186127752E-3
6.584290833E0,-9.292687476E-4
6.594224833E0,4.856660776E-3
6.604158833E0,7.210256439E-3
6.614092833E0,-4.170307294E-3
6.624026833E0,5.523791537E-4
6.633960833E0,8.430113532E-3
6.643894833E0,5.653051548E-3
6.653828833E0,1.212749071E-4
6.663762833E0,4.702349100E-3
6.673696833E0,3.863419835E-3
6.683630833E0,-1.656625830E-3
6.693564833E0,-7.785878275E-3
6.703498833E0,-3.359462935E-3
6.713433833E0,-9.177935869E-4
6.723367833E0,-2.818339672E-3
6.733301833E0,-1.079523917E-3
6.743235833E0,1.010289229E-3
6.753169833E0,7.244444378E-3
6.763103833E0,-7.229424343E-3
6.773037833E0,-6.640335638E-3
6.782971833E0,5.206251182E-3
6.792905833E0,-1.631190442E-4
6.802839833E0,5.967083573E-4
6.812773833E0,-2.278605122E-3
6.822707833E0,-5.002292991E-3
6.832641833E0,-4.738473929E-3
6.842575833E0,1.020996943E-3
6.852510833E0,-6.826441549E-4
6.862444833E0,4.407722522E-3
6.872378833E0,4.891945068E-3
6.882312833E0,-4.827972874E-4
6.892246833E0,3.754771259E-3
6.902180833E0,5.891416948E-3
6.912114833E0,4.051754996E-4
6.922048833E0,-9.773803689E-4
6.931982833E0,-4.684496820E-3
6.941916833E0,-5.298107285E-3
6.951850833E0,2.971993536E-3
6.961784833E0,-2.587137111E-3
6.971718833E0,2.210667785E-3
6.981653833E0,5.197169725E-3
6.991587833E0,8.818149380E-3
7.001521833E0,8.981505968E-4
7.011455833E0,7.341617793E-3
7.021389833E0,1.772802696E-4
7.031323833E0,5.158888735E-4
7.041257833E0,-2.590901256E-3
7.051191833E0,-3.740390763E-3
7.061125833E0,-3.796195127E-3
7.071059833E0,-1.271038502E-3
7.080993833E0,7.516193725E-3
7.090927833E0,-1.635904759E-3
7.100861833E0,2.720983531E-3
7.110795833E0,-1.291869208E-4
7.120730833E0,-3.359426390E-3
7.130664833E0,2.075743284E-3
7.140598833E0,8.731683679E-3
7.150532833E0,2.195519842E-3
7.160466833E0,-6.610094570E-4
7.170400833E0,1.851137113E-3
7.180334833E0,7.036210410E-3
7.190268833E0,5.584748760E-3
7.200202833E0,8.061483130E-4
7.210136917E0,6.860629488E-3
7.220070917E0,1.425185725E-3
7.230004917E0,3.739605043E-3
7.239938917E0,7.714432608E-3
7.249872917E0,4.229492079E-3
7.259807917E0,-7.499273345E-3
7.269741917E0,2.002159730E-3
7.279675917E0,-2.950377110E-3
7.289609917E0,3.250905722E-3
7.299543917E0,3.076000884E-4
7.309477917E0,2.499026880E-3
7.319411917E0,6.540549248E-3
7.329345917E0,5.716384202E-4
7.339279917E0,6.389544904E-4
7.349213917E0,-1.422919929E-3
7.359147917E0,-5.047152098E-3
7.369081917E0,6.601049658E-3
7.379015917E0,1.153345015E-3
7.388950917E0,6.099084467E-3
7.398884917E0,1.957538165E-4
7.408818917E0,3.743497096E-3
7.418752917E0,-2.297297940E-3
7.428686917E0,8.121636361E-3
7.438620917E0,6.478312947E-3
7.448554917E0,4.924762566E-3
7.458488917E0,-2.541346103E-4
7.468422917E0,4.237294458E-3
7.478356917E0,9.837264251E-3
7.488290917E0,3.382577710E-3
7.498224917E0,1.884959601E-3
7.508158917E0,-4.554140456E-3
7.518093917E0,1.009287894E-2
7.528027917E0,2.606158834E-3
7.537961917E0,-3.139223903E-4
7.547895917E0,7.329704091E-3
7.557829917E0,9.241944607E-3
7.567763917E0,-2.503028568E-3
7.577697917E0,-6.295624003E-3
7.587631917E0,3.502664901E-4
7.597565917E0,-2.408870123E-4
7.607499917E0,9.300398491E-3
7.617433917E0,-1.710858755E-3
7.627367917E0,6.029758416E-4
7.637301917E0,-4.119509608E-3
7.647235917E0,7.013552450E-4
7.657170917E0,-6.021718495E-4
7.667104917E0,4.678338971E-3
7.677038917E0,-2.253681365E-3
7.686972917E0,1.530070156E-3
7.696906917E0,-4.657910261E-3
7.706840917E0,-2.970751002E-4
7.716774917E0,-2.263292726E-3
7.726708917E0,2.919350322E-3
7.736642917E0,3.952589873E-3
7.746576917E0,3.519292921E-3
7.756510917E0,5.131388549E-3
7.766444917E0,8.712972589E-3
7.776378917E0,2.246043440E-3
7.786313917E0,-2.183240689E-3
7.796247917E0,7.787212171E-4
7.806181917E0,-4.967337605E-3
7.816115917E0,-7.969882842E-3
7.826049917E0,1.680873502E-3
7.835983917E0,-6.888568215E-4
7.845917917E0,-2.605226934E-3
7.855851917E0,8.002225254E-3
7.865785917E0,-1.893821787E-3
7.875719917E0,4.297283236E-3
7.885653917E0,1.140853900E-2
7.895587917E0,1.845472623E-3
7.905521917E0,-5.145184323E-4
7.915455917E0,4.094585851E-3
7.925390917E0,2.896180730E-3
7.935324917E0,2.716817390E-3
7.945258917E0,-6.183430552E-5
7.955192917E0,6.471771374E-3
7.965126917E0,-1.559452415E-3
7.975060917E0,-1.011999540E-2
7.984994917E0,1.292475857E-2
7.994928917E0,7.589503191E-3
8.004862917E0,7.352325507E-4
8.014796917E0,1.197016407E-3
8.024730917E0,-2.681788914E-3
8.034664917E0,2.833615523E-3
8.044598917E0,7.014210261E-3
8.054533917E0,4.444852341E-3
8.064467917E0,2.591211889E-3
8.074401917E0,5.745766461E-3
8.084335917E0,4.173797350E-3
8.094269917E0,6.330871750E-3
8.104203917E0,1.476056501E-4
8.114137917E0,-1.198569573E-3
8.124071917E0,-3.534185048E-3
8.134005917E0,-2.161660809E-3
8.143939917E0,5.352468118E-3
8.153873917E0,-9.049114399E-4
8.163807917E0,8.612035029E-4
8.173741917E0,4.480081815E-3
8.183675917E0,-2.665562890E-3
8.193610917E0,5.884126201E-3
8.203544917E0,6.043718643E-3
8.213478292E0,5.823461339E-3
8.223412292E0,2.058640178E-3
8.233346292E0,1.829009056E-3
8.243280292E0,6.366978306E-3
8.253214292E0,2.542405911E-3
8.263148292E0,7.200626805E-3
8.273082292E0,5.020145271E-3
8.283016292E0,4.719342571E-3
8.292950292E0,1.944893561E-3
8.302884292E0,2.906522993E-3
8.312818292E0,4.868190754E-3
8.322753292E0,3.311936036E-3
8.332687292E0,6.082748808E-4
8.342621292E0,-1.137341917E-2
8.352555292E0,2.911657579E-3
8.362489292E0,7.750630528E-3
8.372423292E0,2.064523939E-3
8.382357292E0,-3.290776424E-3
8.392291292E0,5.187503546E-3
8.402225292E0,2.432441711E-4
8.412159292E0,3.902194183E-3
8.422093292E0,2.483111490E-3
8.432027292E0,8.042278681E-3
8.441961292E0,-3.779402655E-3
8.451896292E0,5.101275388E-3
8.461830292E0,4.210177995E-3
8.471764292E0,-1.069784649E-3
8.481698292E0,8.142065071E-3
8.491632292E0,8.830519896E-3
8.501566292E0,9.362927154E-3
8.511500292E0,-7.239529062E-3
8.521434292E0,-6.856189258E-3
8.531368292E0,-1.031558476E-3
8.541302292E0,3.323392924E-3
8.551236292E0,7.222188413E-3
8.561170292E0,3.510174919E-3
8.571104292E0,3.395514674E-3
8.581038292E0,-2.992787696E-3
8.590973292E0,7.241191864E-3
8.600907292E0,1.833449285E-3
8.610841292E0,5.078416429E-3
8.620775292E0,3.215000164E-3
8.630709292E0,3.861318491E-3
8.640643292E0,3.450496774E-3
8.650577292E0,4.891488254E-3
8.660511292E0,1.251998506E-2
8.670445292E0,1.535076834E-4
8.680379292E0,-9.175012261E-4
8.690313292E0,3.479915578E-3
8.700247292E0,-6.162344031E-3
8.710181292E0,3.013143316E-4
8.720115292E0,1.240680490E-2
8.730050292E0,1.699504193E-2
8.739984292E0,3.648096118E-3
8.749918292E0,5.779168680E-3
8.759852292E0,1.047813736E-2
8.769786292E0,6.610441748E-3
8.779720292E0,1.074133515E-3
8.789654292E0,3.636493050E-3
8.799588292E0,6.435591727E-4
8.809522292E0,-3.114903141E-3
8.819456292E0,4.572394732E-3
8.829390292E0,7.571358550E-3
8.839324292E0,1.093332483E-2
8.849258292E0,9.716738518E-3
8.859193292E0,4.192252625E-3
8.869127292E0,4.641976599E-3
8.879061292E0,2.950212657E-3
8.888995292E0,6.987386160E-3
8.898929292E0,8.190834504E-3
8.908863292E0,4.174363799E-4
8.918797292E0,5.308175460E-4
8.928731292E0,1.778174825E-3
8.938665292E0,-5.906436983E-3
8.948599292E0,1.286880802E-3
8.958533292E0,3.858431429E-3
8.968467292E0,1.257279273E-3
8.978401292E0,3.345886432E-4
8.988336292E0,-7.491087243E-3
8.998270292E0,-2.828919478E-3
9.008204292E0,2.925398536E-3
9.018138292E0,3.121225443E-3
9.028072292E0,8.647100050E-3
9.038006292E0,7.945397627E-3
9.047940292E0,1.050044814E-2
9.057874292E0,-4.907823913E-3
9.067808292E0,-5.608137622E-3
9.077742292E0,-1.598939393E-3
9.087676292E0,-4.001066945E-3
9.097610292E0,1.307309512E-3
9.107544292E0,2.308097016E-3
9.117478292E0,-6.103378516E-3
9.127413292E0,4.118175711E-3
9.137347292E0,3.509754650E-3
9.147281292E0,8.693512324E-3
9.157215292E0,6.105150953E-3
9.167149292E0,4.298617132E-3
9.177083292E0,2.314656861E-3
9.187017292E0,-2.005722877E-3
9.196951292E0,6.079459749E-4
9.206885583E0,2.937312238E-3
9.216819583E0,-2.378153969E-3
9.226753583E0,2.784224823E-3
9.236687583E0,-6.705842726E-4
9.246621583E0,8.342441842E-3
9.256556583E0,5.030231718E-3
9.266490583E0,9.807973355E-4
9.276424583E0,9.021851756E-3
9.286358583E0,8.475813176E-3
9.296292583E0,3.341976106E-3
9.306226583E0,4.187702760E-4
9.316160583E0,-3.555838019E-5
9.326094583E0,4.140376858E-3
9.336028583E0,-3.619901575E-3
9.345962583E0,-2.556201685E-3
9.355896583E0,-2.912626024E-3
9.365830583E0,-1.458715852E-3
9.375764583E0,4.609396644E-3
9.385698583E0,4.018754773E-3
9.395633583E0,-2.431034725E-3
9.405567583E0,4.998565391E-3
9.415501583E0,-2.048316188E-3
9.425435583E0,3.590263501E-3
9.435369583E0,6.308743693E-3
9.445303583E0,6.539197080E-4
9.455237583E0,-2.924265638E-3
9.465171583E0,-4.187099766E-3
9.475105583E0,4.420696031E-3
9.485039583E0,-3.911312185E-3
9.494973583E0,-9.234270137E-3
9.504907583E0,2.943250816E-3
9.514841583E0,1.914670765E-3
9.524776583E0,1.700553037E-3
9.534710583E0,9.743178897E-3
9.544644583E0,-2.665014714E-3
9.554578583E0,1.519271079E-3
9.564512583E0,-9.098815732E-3
9.574446583E0,1.172640827E-3
9.584380583E0,6.699739695E-3
9.594314583E0,1.241436973E-4
9.604248583E0,5.880398601E-3
9.614182583E0,-4.264812917E-4
9.624116583E0,1.648110822E-3
9.634050583E0,6.271138787E-4
9.643984583E0,-5.964561962E-3
9.653919583E0,-2.422684170E-3
9.663853583E0,-2.972633075E-3
9.673787583E0,5.240055397E-3
9.683721583E0,-1.831128672E-3
9.693655583E0,2.995090038E-3
9.703589583E0,1.901825164E-3
9.713523583E0,1.234712675E-3
9.723457583E0,-5.192747768E-3
9.733391583E0,-5.008103661E-3
9.743325583E0,2.743257768E-3
9.753259583E0,6.099194102E-4
9.763193583E0,-6.530243531E-3
9.773127583E0,-9.814186022E-5
9.783061583E0,9.025524538E-3
9.792996583E0,3.512404170E-3
9.802930583E0,8.700839616E-4
9.812864583E0,1.142308395E-3
9.822798583E0,2.364431284E-3
9.832732583E0,-5.438787639E-3
9.842666583E0,-2.248802595E-4
9.852600583E0,3.309377879E-3
9.862534583E0,-4.393890202E-3
9.872468583E0,1.044330988E-2
9.882402583E0,1.188057376E-2
9.892336583E0,-1.372304969E-3
9.902270583E0,1.073329523E-4
9.912204583E0,3.433612939E-3
9.922139583E0,-6.327326875E-3
9.932073583E0,1.289475504E-3
9.942007583E0,-4.175277427E-4
9.951941583E0,5.067105722E-3
9.961875583E0,4.489419088E-3
9.971809583E0,2.486583274E-3
9.981743583E0,-2.512950562E-3
9.991677583E0,-1.815359462E-3
1.000161158E1,-1.921723969E-4
1.001154558E1,-6.160882227E-3
1.002147958E1,1.131671945E-2
1.003141358E1,-9.262574315E-3
1.004134758E1,-4.072549157E-3
1.005128258E1,-2.078995798E-3
1.006121658E1,1.456943415E-3
1.007115058E1,6.385707669E-4
1.008108458E1,2.594939489E-3
1.009101858E1,-2.162958160E-3
1.010095258E1,-1.334261522E-3
1.011088658E1,6.430201326E-3
1.012082058E1,-6.683513671E-3
1.013075458E1,-2.529578581E-3
1.014068858E1,-3.745342623E-3
1.015062258E1,6.192128286E-3
1.016055658E1,1.086942572E-3
1.017049058E1,1.749011837E-3
1.018042458E1,8.438939173E-3
1.019035958E1,2.880722154E-3
1.020029358E1,1.105671935E-4
1.021022729E1,-7.857799027E-3
1.022016129E1,-1.107890222E-2
1.023009529E1,-1.141175497E-3
1.024002929E1,9.043998085E-3
1.024996329E1,-2.988219559E-3
1.025989729E1,-1.239627991E-2
1.026983129E1,2.462591417E-4
1.027976529E1,4.354585949E-3
1.028969929E1,-1.120472699E-3
1.029963329E1,3.290264793E-3
1.030956729E1,8.204374462E-4
1.031950229E1,1.416780353E-3
1.032943629E1,3.041301314E-3
1.033937029E1,-7.174204700E-3
1.034930429E1,-2.484025117E-3
1.035923829E1,5.387916863E-3
1.036917229E1,-2.504490372E-3
1.037910629E1,-5.345414914E-3
1.038904029E1,-4.609890003E-3
1.039897429E1,-7.146101519E-3
1.040890829E1,-1.103208795E-2
1.041884229E1,-1.473388709E-3
1.042877629E1,5.813301802E-3
1.043871029E1,1.852379646E-3
1.044864529E1,-1.321781371E-3
1.045857929E1,4.613983054E-3
1.046851329E1,-1.274364106E-3
1.047844729E1,-1.406565998E-3
1.048838129E1,-3.585987724E-4
1.049831529E1,-5.269163568E-3
1.050824929E1,-4.527279809E-3
1.051818329E1,1.480661184E-3
1.052811729E1,-1.866723597E-4
1.053805129E1,3.043841198E-4
1.054798529E1,1.579990759E-3
1.055791929E1,6.046697069E-3
1.056785329E1,-1.472109631E-3
1.057778729E1,4.625513032E-4
1.058772229E1,2.379104141E-3
1.059765629E1,1.407424808E-3
1.060759029E1,7.888442092E-4
1.061752429E1,1.516109928E-3
1.062745829E1,-7.166493684E-5
1.063739229E1,-9.633086789E-3
1.064732629E1,2.200764064E-3
1.065726029E1,-9.806328826E-4
1.066719429E1,9.903758056E-3
1.067712829E1,-1.330186743E-3
1.068706229E1,-4.879136011E-3
1.069699629E1,-2.961578183E-3
1.070693029E1,-6.204060260E-3
1.071686529E1,2.305082045E-4
1.072679929E1,-5.464223027E-4
1.073673329E1,7.164483704E-4
1.074666729E1,1.522212960E-3
1.075660129E1,4.251930770E-3
1.076653529E1,3.868901599E-3
1.077646929E1,-2.887062728E-4
1.078640329E1,-2.712742612E-4
1.079633729E1,-5.231375936E-3
1.080627129E1,-6.557597537E-3
1.081620529E1,-2.826215141E-3
1.082613929E1,1.665579379E-3
1.083607329E1,-2.912096120E-4
1.084600829E1,-7.117705978E-4
1.085594229E1,6.099194102E-4
1.086587629E1,7.071878426E-3
1.087581029E1,-7.312674075E-3
1.088574429E1,-4.885695856E-3
1.089567829E1,2.190220803E-3
1.090561229E1,7.789861690E-3
1.091554629E1,-2.811725009E-3
1.092548029E1,-9.150344320E-3
1.093541429E1,-2.472641319E-3
1.094534829E1,-9.183947537E-3
1.095528229E1,-5.692995340E-4
1.096521629E1,-2.627172265E-3
1.097515129E1,-5.765756629E-3
1.098508529E1,-2.465624660E-3
1.099501929E1,1.779198088E-3
1.100495329E1,6.348614395E-4
1.101488729E1,-5.032460969E-3
1.102482129E1,-2.994688042E-3
1.103475529E1,1.828004066E-3
1.104468929E1,-9.143948928E-4
1.105462329E1,-7.753133867E-3
1.106455729E1,6.076718867E-3
1.107449129E1,-1.899157371E-3
1.108442529E1,6.372368708E-4
1.109435929E1,3.353341632E-3
1.110429429E1,-6.759381294E-4
1.111422829E1,7.800551131E-5
1.112416229E1,-4.104745388E-3
1.113409629E1,-4.156986605E-3
1.114403029E1,1.755261049E-4
1.115396429E1,2.959769201E-3
1.116389829E1,-8.936920948E-4
1.117383229E1,-5.969934091E-3
1.118376629E1,-3.916848768E-3
1.119370029E1,1.054728068E-3
1.120363429E1,1.461986639E-3
1.121356858E1,4.679599777E-4
1.122350258E1,7.557855137E-3
1.123343758E1,-4.172755815E-3
1.124337158E1,-4.786877912E-3
1.125330558E1,-8.897689786E-3
1.126323958E1,5.085286908E-3
1.127317358E1,3.043548837E-3
1.128310758E1,-1.891665626E-3
1.129304158E1,-5.228762962E-3
1.130297558E1,3.611295205E-3
1.131290958E1,2.864203770E-3
1.132284358E1,6.372916885E-4
1.133277758E1,-1.340492461E-3
1.134271158E1,5.503143556E-3
1.135264558E1,-2.397870049E-3
1.136257958E1,-2.825118788E-4
1.137251458E1,-7.058685645E-5
1.138244858E1,-9.423829559E-3
1.139238258E1,7.593523152E-4
1.140231658E1,2.139678933E-3
1.141225058E1,-1.269576699E-3
1.142218458E1,7.075130939E-5
1.143211858E1,-3.355150614E-3
1.144205258E1,-8.247040864E-3
1.145198658E1,-9.004127383E-3
1.146192058E1,-8.967015836E-3
1.147185458E1,8.254094068E-3
1.148178858E1,2.482581586E-3
1.149172358E1,-3.743040282E-3
1.150165758E1,-7.190832719E-3
1.151159158E1,-1.051601635E-2
1.152152558E1,-5.749640241E-4
1.153145958E1,5.743025579E-3
1.154139358E1,1.264736300E-2
1.155132758E1,3.935925309E-3
1.156126158E1,-3.347055875E-3
1.157119558E1,-7.386312447E-4
1.158112958E1,1.641057618E-3
1.159106358E1,-3.270822801E-3
1.160099758E1,2.549532205E-3
1.161093158E1,9.264182299E-4
1.162086558E1,-9.473622255E-3
1.163080058E1,-3.079838119E-4
1.164073458E1,-1.497545019E-3
1.165066858E1,-8.643226270E-3
1.166060258E1,4.980183206E-4
1.167053658E1,6.029740144E-3
1.168047058E1,5.145750772E-3
1.169040458E1,-6.696395818E-3
1.170033858E1,-2.310636900E-3
1.171027258E1,-9.361081626E-3
1.172020658E1,-9.136767816E-3
1.173014058E1,-3.869723864E-3
1.174007458E1,5.241042115E-3
1.175000858E1,-7.989142109E-3
1.175994358E1,-2.322459240E-3
1.176987758E1,8.976389654E-3
1.177981158E1,1.590881199E-3
1.178974558E1,-7.664822638E-3
1.179967958E1,-1.472913623E-3
1.180961358E1,3.166870270E-3
1.181954758E1,-4.242465589E-3
1.182948158E1,-5.223299470E-3
1.183941558E1,2.878255360E-3
1.184934958E1,4.658677708E-3
1.185928358E1,6.885827333E-3
1.186921758E1,6.833366845E-3
1.187915258E1,-1.970036589E-3
1.188908658E1,-5.175279211E-3
1.189902058E1,2.486875635E-3
1.190895458E1,-2.516294438E-3
1.191888858E1,-5.829125829E-3
1.192882258E1,-2.535846066E-3
1.193875658E1,4.352886602E-3
1.194869058E1,-3.082103916E-3
1.195862458E1,-4.044153616E-3
1.196855858E1,2.130597476E-3
1.197849258E1,-3.377315216E-4
1.198842658E1,-6.439794414E-3
1.199836058E1,4.225271121E-3
1.200829558E1,-1.620373093E-3
1.201822958E1,-1.006504985E-2
1.202816358E1,-6.396159567E-3
1.203809758E1,-1.826103721E-3
1.204803158E1,-1.343032345E-5
1.205796558E1,-6.972841211E-3
1.206789958E1,-6.955811195E-4
1.207783358E1,-7.816466521E-3
1.208776758E1,-1.422795676E-2
1.209770158E1,5.798153859E-3
1.210763558E1,-6.790828351E-3
1.211756958E1,-2.561427634E-3
1.212750358E1,-1.206465142E-2
1.213743858E1,-9.239021000E-3
1.214737258E1,4.184358884E-3
1.215730658E1,-2.529048678E-3
1.216724058E1,-4.307113867E-3
1.217717458E1,2.407956496E-4
1.218710858E1,1.298164101E-2
1.219704258E1,-3.376419861E-3
1.220697658E1,1.474558152E-3
1.221691054E1,8.930068742E-3
1.222684454E1,-6.831758860E-3
1.223677854E1,4.521980770E-3
1.224671254E1,5.294708591E-3
1.225664654E1,-5.539688654E-3
1.226658154E1,2.212495040E-3
1.227651554E1,-9.399563614E-3
1.228644954E1,-7.831523102E-3
1.229638354E1,-2.024817690E-3
1.230631754E1,3.642011359E-3
1.231625154E1,-7.073431592E-3
1.232618554E1,-3.215566613E-3
1.233611954E1,-1.611273363E-4
1.234605354E1,-4.412619565E-3
1.235598754E1,9.835564904E-4
1.236592154E1,8.638347499E-4
1.237585554E1,-4.509610254E-3
1.238578954E1,-1.053343009E-2
1.239572454E1,1.238129642E-3
1.240565854E1,-3.304553926E-3
1.241559254E1,1.497051660E-3
1.242552654E1,-2.429371923E-3
1.243546054E1,-3.350034300E-3
1.244539454E1,-1.763812602E-3
1.245532854E1,-2.254631538E-3
1.246526254E1,8.719660342E-4
1.247519654E1,5.802374817E-3
1.248513054E1,-1.289347596E-3
1.249506454E1,-2.588452734E-3
1.250499854E1,-1.876481138E-3
1.251493254E1,-1.168905918E-2
1.252486754E1,-1.211139260E-2
1.253480154E1,-1.094065212E-2
1.254473554E1,-1.176057793E-3
1.255466954E1,-4.274314642E-4
1.256460354E1,-5.435516853E-3
1.257453754E1,-5.911151301E-3
1.258447154E1,-5.963063613E-3
1.259440554E1,-2.288874295E-3
1.260433954E1,5.781544112E-3
1.261427354E1,1.187204048E-3
1.262420754E1,-3.597974516E-3
1.263414154E1,-1.354187736E-2
1.264407554E1,-1.639522724E-3
1.265401054E1,-4.851105921E-3
1.266394454E1,-4.766412657E-3
1.267387854E1,2.247103248E-3
1.268381254E1,-9.916877747E-4
1.269374654E1,-8.597508352E-3
1.270368054E1,-3.312484212E-3
1.271361454E1,-4.673204385E-4
1.272354854E1,1.092698425E-5
1.273348254E1,3.190021589E-4
1.274341654E1,-6.909508556E-3
1.275335054E1,-1.381203700E-3
1.276328454E1,-5.671543367E-3
1.277321854E1,-1.720725931E-3
1.278315354E1,2.580230087E-3
1.279308754E1,1.948146075E-3
1.280302154E1,-2.715501767E-3
1.281295554E1,-7.757683732E-3
1.282288954E1,2.966365591E-4
1.283282354E1,-1.036563328E-2
1.284275754E1,-5.241919197E-3
1.285269154E1,-1.584595442E-4
1.286262554E1,-1.241796942E-2
1.287255954E1,-3.381846808E-3
1.288249354E1,6.373775695E-3
1.289242754E1,4.975816067E-3
1.290236154E1,-1.118444446E-3
1.291229654E1,-2.064030580E-3
1.292223054E1,4.726925679E-4
1.293216454E1,-2.403991353E-3
1.294209854E1,1.432969831E-3
1.295203254E1,-3.051990755E-3
1.296196654E1,-3.782728259E-3
1.297190054E1,-7.356637828E-3
1.298183454E1,6.546560917E-3
1.299176854E1,3.835755195E-3
1.300170254E1,1.268206257E-3
1.301163654E1,8.670141734E-4
1.302157054E1,1.292271204E-3
1.303150454E1,-3.236707952E-3
1.304143954E1,-3.562160321E-3
1.305137354E1,1.549146697E-4
1.306130754E1,-5.890083052E-3
1.307124154E1,-4.059027471E-3
1.308117554E1,-4.931578226E-4
1.309110954E1,1.039561853E-3
1.310104354E1,1.254629754E-3
1.311097754E1,7.822039649E-3
1.312091154E1,4.387896806E-3
1.313084554E1,-7.382913753E-3
1.314077954E1,-6.492565535E-3
1.315071354E1,-1.953774020E-3
1.316064854E1,-5.777341425E-3
1.317058254E1,1.985586528E-3
1.318051654E1,1.503465325E-3
1.319045054E1,1.162006203E-3
1.320038454E1,-3.419469986E-3
1.321031904E1,-8.673430793E-4
1.322025304E1,8.555390127E-4
1.323018704E1,1.354269963E-3
1.324012104E1,-2.639579326E-3
1.325005504E1,-2.018586751E-3
1.325998904E1,-1.183781600E-2
1.326992304E1,-7.698462401E-3
1.327985704E1,-2.642941475E-4
1.328979204E1,4.869341925E-3
1.329972604E1,1.292263895E-2
1.330966004E1,-9.627075121E-4
1.331959404E1,4.640770610E-3
1.332952804E1,3.513865974E-3
1.333946204E1,-1.459044758E-3
1.334939604E1,4.445363972E-3
1.335933004E1,2.478305809E-4
1.336926404E1,-8.982967772E-4
1.337919804E1,3.585804999E-4
1.338913204E1,-4.583321717E-3
1.339906604E1,-2.213956844E-3
1.340900004E1,-6.158634704E-3
1.341893504E1,-4.854340162E-3
1.342886904E1,-7.065355126E-3
1.343880304E1,4.530239962E-3
1.344873704E1,-5.102792010E-3
1.345867104E1,-1.046340968E-3
1.346860504E1,-2.980088275E-3
1.347853904E1,3.827971090E-3
1.348847304E1,-3.160091154E-3
1.349840704E1,-1.878070850E-3
1.350834104E1,-5.355318636E-3
1.351827504E1,-3.884414993E-3
1.352820904E1,-2.426046319E-3
1.353814404E1,-8.945691772E-4
1.354807804E1,-3.135295305E-3
1.355801204E1,2.398198955E-3
1.356794604E1,-4.542464297E-3
1.357788004E1,1.208053026E-3
1.358781404E1,7.578375209E-3
1.359774804E1,4.838095866E-3
1.360768204E1,-1.669745520E-3
1.361761604E1,-8.074767273E-3
1.362755004E1,9.230633900E-3
1.363748404E1,-8.214241639E-4
1.364741804E1,-3.175604548E-3
1.365735204E1,-1.928356905E-3
1.366728704E1,4.448634759E-3
1.367722104E1,-3.494533617E-3
1.368715504E1,-8.332848754E-3
1.369708904E1,-4.068858102E-3
1.370702304E1,-1.076161768E-3
1.371695704E1,-1.203923430E-3
1.372689104E1,-4.020216577E-3
1.373682504E1,1.501217801E-3
1.374675904E1,4.100816790E-3
1.375669304E1,1.051329374E-3
1.376662704E1,-3.815216850E-3
1.377656104E1,-3.600733671E-3
1.378649604E1,5.807746947E-4
1.379643004E1,5.581861697E-3
1.380636404E1,-5.432410520E-3
1.381629804E1,-9.821129590E-4
1.382623204E1,3.363044355E-3
1.383616604E1,1.179456487E-3
1.384610004E1,-8.388927206E-4
1.385603404E1,-3.479221221E-3
1.386596804E1,-1.840356309E-3
1.387590204E1,-4.289499130E-3
1.388583604E1,-8.518662304E-3
1.389577004E1,7.666978799E-4
1.390570404E1,-3.461149670E-3
1.391563904E1,-5.555494409E-3
1.392557304E1,-6.549045984E-3
1.393550704E1,7.739009187E-3
1.394544104E1,-2.653685734E-3
1.395537504E1,-6.340994742E-3
1.396530904E1,-1.936817095E-3
1.397524304E1,2.245878987E-3
1.398517704E1,-6.657347381E-3
1.399511104E1,-6.675784383E-3
1.400504504E1,6.005455926E-3
1.401497904E1,8.634692989E-4
1.402491304E1,-3.700465243E-3
1.403484804E1,2.007623222E-3
1.404478204E1,-5.835703947E-4
1.405471604E1,-1.103113778E-4
1.406465004E1,-4.537019078E-3
1.407458404E1,-8.013188783E-3
1.408451804E1,-2.572701797E-3
1.409445204E1,-5.615209099E-3
1.410438604E1,-6.337797046E-3
1.411432004E1,-1.961923577E-3
1.412425404E1,-7.121579759E-3
1.413418804E1,4.596276954E-3
1.414412204E1,-7.273406368E-3
1.415405604E1,-2.863034327E-3
1.416399104E1,-3.781467453E-3
1.417392504E1,-9.254589211E-3
1.418385904E1,9.471941181E-4
1.419379304E1,-8.772522826E-3
1.420372704E1,-1.533870846E-3
1.421366042E1,-2.978041749E-3
1.422359442E1,5.180760976E-3
1.423352842E1,1.352205165E-3
1.424346242E1,-4.020582028E-3
1.425339642E1,-6.957090273E-3
1.426333042E1,-6.505465955E-3
1.427326442E1,-1.161750387E-3
1.428319842E1,-2.802826278E-3
1.429313342E1,1.082977429E-3
1.430306742E1,-2.240177952E-3
1.431300142E1,6.082913261E-3
1.432293542E1,-4.837693870E-3
1.433286942E1,-3.735183086E-3
1.434280342E1,2.927298881E-3
1.435273742E1,-1.423968773E-2
1.436267142E1,-6.060127392E-3
1.437260542E1,-2.072655223E-3
1.438253942E1,-5.877950080E-3
1.439247342E1,-3.553316407E-3
1.440240742E1,-2.972669620E-3
1.441234142E1,-1.207852028E-3
1.442227642E1,-2.871604152E-3
1.443221042E1,2.100466043E-3
1.444214442E1,-9.287205711E-4
1.445207842E1,-1.024302447E-2
1.446201242E1,-3.293499034E-3
1.447194642E1,1.580977477E-3
1.448188042E1,-7.475866210E-3
1.449181442E1,1.399238706E-3
1.450174842E1,2.192815505E-3
1.451168242E1,-9.331279099E-3
1.452161642E1,4.022336192E-4
1.453155042E1,-4.326099046E-3
1.454148542E1,4.631323703E-3
1.455141942E1,2.768419068E-3
1.456135342E1,-2.579517458E-3
1.457128742E1,9.247188829E-4
1.458122142E1,2.563474160E-3
1.459115542E1,-6.773414612E-3
1.460108942E1,-5.176010113E-3
1.461102342E1,-1.729204394E-3
1.462095742E1,1.238147914E-4
1.463089142E1,1.770810988E-3
1.464082542E1,-5.824521147E-3
1.465075942E1,-4.667868800E-3
1.466069442E1,-6.702334397E-3
1.467062842E1,5.370155945E-3
1.468056242E1,2.011350822E-3
1.469049642E1,-9.046921693E-3
1.470043042E1,-2.242736109E-3
1.471036442E1,3.145253845E-4
1.472029842E1,-7.390442044E-3
1.473023242E1,-3.128296919E-3
1.474016642E1,-1.387578992E-2
1.475010042E1,-5.401931908E-3
1.476003442E1,-5.968819465E-3
1.476996842E1,-5.957947299E-4
1.477990242E1,-3.392554522E-3
1.478983742E1,-6.972439215E-3
1.479977142E1,-5.411963537E-3
1.480970542E1,5.933845807E-3
1.481963942E1,-4.764092043E-3
1.482957342E1,1.469624564E-3
1.483950742E1,4.087130651E-3
1.484944142E1,-8.505871519E-5
1.485937542E1,6.091702357E-4
1.486930942E1,-8.213200103E-3
1.487924342E1,-6.410247702E-3
1.488917742E1,4.257138446E-4
1.489911142E1,-8.310903423E-4
1.490904642E1,1.057980582E-4
1.491898042E1,-9.179580398E-3
1.492891442E1,-8.181716502E-3
1.493884842E1,-3.387383390E-3
1.494878242E1,2.934388630E-3
1.495871642E1,8.241467737E-4
1.496865042E1,-9.213676974E-3
1.497858442E1,9.086755849E-4
1.498851842E1,-6.407762635E-3
1.499845242E1,-6.550306790E-3
1.500838642E1,-1.148380363E-2
1.501832042E1,-6.410558335E-3
1.502825442E1,3.492066823E-3
1.503818942E1,-6.888367217E-3
1.504812342E1,-7.741238438E-3
1.505805742E1,8.951538987E-4
1.506799142E1,-3.851944674E-3
1.507792542E1,6.737636961E-4
1.508785942E1,4.708013590E-3
1.509779342E1,-1.771907341E-3
1.510772742E1,-7.013607267E-3
1.511766142E1,5.932018552E-3
1.512759542E1,2.195812203E-4
1.513752942E1,-1.666255463E-3
1.514746342E1,-6.040356494E-3
1.515739842E1,-7.925407458E-3
1.516733242E1,-1.040840931E-3
1.517726642E1,4.535940997E-3
1.518720042E1,2.005795967E-3
1.519713442E1,-5.334542748E-3
1.520706842E1,-4.663300663E-3
1.521700258E1,-5.108566135E-3
1.522693658E1,-5.675362330E-3
1.523687058E1,6.740962565E-3
1.524680458E1,9.213201888E-4
1.525673858E1,-2.880594246E-3
1.526667258E1,1.723137908E-3
1.527660758E1,-3.285386022E-3
1.528654158E1,7.570499741E-4
1.529647558E1,-4.299073946E-3
1.530640958E1,5.288441107E-4
1.531634358E1,2.880941425E-3
1.532627758E1,-3.825924564E-3
1.533621158E1,-1.200561281E-3
1.534614558E1,1.399604157E-3
1.535607958E1,-3.722501937E-3
1.536601358E1,-9.114438761E-3
1.537594758E1,1.313997265E-3
1.538588158E1,9.051124379E-4
1.539581558E1,5.870239064E-4
1.540575058E1,4.124461468E-3
1.541568458E1,-6.298657246E-3
1.542561858E1,-4.170617927E-3
1.543555258E1,-1.385004390E-3
1.544548658E1,2.504892368E-3
1.545542058E1,1.542239673E-3
1.546535458E1,7.235216741E-3
1.547528858E1,2.968887202E-3
1.548522258E1,2.771507129E-3
1.549515658E1,6.192566827E-4
1.550509058E1,-4.830896482E-3
1.551502458E1,-2.765203100E-3
1.552495958E1,-7.875285856E-3
1.553489358E1,8.150232900E-3
1.554482758E1,2.210210972E-3
1.555476158E1,-4.284711722E-3
1.556469558E1,-3.838916346E-3
1.557462958E1,-3.787314668E-3
1.558456358E1,4.920377154E-3
1.559449758E1,-7.549851760E-4
1.560443158E1,-3.619188946E-3
1.561436558E1,-2.698435206E-3
1.562429958E1,-6.063854992E-3
1.563423358E1,-3.637735583E-3
1.564416858E1,7.347245738E-3
1.565410258E1,1.239262540E-3
1.566403658E1,-6.380207632E-3
1.567397058E1,-5.651260838E-3
1.568390458E1,4.453751072E-4
1.569383858E1,-6.043828279E-3
1.570377258E1,7.202856056E-4
1.571370658E1,-3.048171792E-3
1.572364058E1,-2.849384733E-3
1.573357458E1,-6.987002436E-3
1.574350858E1,-6.782404706E-4
1.575344258E1,2.961961906E-3
1.576337758E1,1.041845921E-3
1.577331158E1,-1.068748595E-2
1.578324558E1,-4.125137553E-3
1.579317958E1,1.382720321E-3
1.580311358E1,-4.556497615E-3
1.581304758E1,-5.522932727E-3
1.582298158E1,3.217430413E-4
1.583291558E1,-1.924848575E-3
1.584284958E1,9.655032121E-4
1.585278358E1,-7.884221133E-3
1.586271758E1,-1.492300797E-3
1.587265158E1,-5.245116893E-3
1.588258658E1,7.104367018E-5
1.589252058E1,-3.991821036E-4
1.590245458E1,-1.627810020E-3
1.591238858E1,4.475787766E-3
1.592232258E1,2.051952425E-3
1.593225658E1,3.283577040E-5
1.594219058E1,6.450794488E-3
1.595212458E1,-1.616097316E-3
1.596205858E1,-5.556517672E-3
1.597199258E1,-2.260113303E-3
1.598192658E1,3.081500921E-3
1.599186058E1,-1.774629951E-3
1.600179458E1,2.787915878E-3
1.601172958E1,-9.865349159E-4
1.602166358E1,-1.801216509E-3
1.603159758E1,6.658443734E-3
1.604153158E1,1.999327485E-3
1.605146558E1,-2.376673892E-3
1.606139958E1,1.385241933E-3
1.607133358E1,1.392529026E-2
1.608126758E1,5.072989482E-3
1.609120158E1,2.281309459E-3
1.610113558E1,3.570529148E-3
1.611106958E1,5.501389392E-3
1.612100358E1,3.643162530E-3
1.613093858E1,6.619925201E-3
1.614087258E1,-1.026734523E-4
1.615080658E1,-4.064710233E-3
1.616074058E1,2.925763987E-3
1.617067458E1,1.012059839E-2
1.618060858E1,-7.192458976E-3
1.619054258E1,-2.233581562E-3
1.620047658E1,3.858760335E-3
1.621041058E1,7.036539316E-3
1.622034454E1,-9.157470614E-4
1.623027854E1,-7.006992605E-3
1.624021254E1,1.420434862E-3
1.625014754E1,6.089875102E-4
1.626008154E1,-2.256732881E-3
1.627001554E1,-1.623241883E-3
1.627994954E1,8.268328384E-5
1.628988354E1,-6.858162694E-3
1.629981754E1,-6.653638054E-3
1.630975154E1,1.927461550E-3
1.631968554E1,4.700668026E-3
1.632961954E1,-9.651560336E-4
1.633955354E1,8.919927478E-4
1.634948754E1,-4.251473956E-3
1.635942154E1,-3.582351487E-3
1.636935654E1,5.831647441E-3
1.637929054E1,3.745982163E-3
1.638922454E1,-3.276377656E-3
1.639915854E1,-1.916059479E-4
1.640909254E1,4.116823543E-3
1.641902654E1,-2.286498863E-3
1.642896054E1,-7.853431888E-3
1.643889454E1,1.238495093E-3
1.644882854E1,4.035894424E-3
1.645876254E1,1.366713569E-3
1.646869654E1,1.720104665E-3
1.647863054E1,-5.356232263E-4
1.648856554E1,-3.220317475E-3
1.649849954E1,1.166592613E-3
1.650843354E1,-2.129373215E-3
1.651836754E1,-4.020691663E-4
1.652830154E1,5.468133353E-3
1.653823554E1,4.080625623E-3
1.654816954E1,-3.352501094E-3
1.655810354E1,-4.423053190E-4
1.656803754E1,1.498714462E-3
1.657797154E1,-4.149019774E-3
1.658790554E1,9.120011888E-4
1.659783954E1,1.150112601E-2
1.660777454E1,5.087333433E-3
1.661770854E1,-8.198143523E-3
1.662764254E1,-9.768504649E-4
1.663757654E1,-6.560210511E-4
1.664751054E1,-7.839599568E-3
1.665744454E1,-3.983415663E-6
1.666737854E1,8.325430099E-3
1.667731254E1,2.038686555E-3
1.668724654E1,-3.795208409E-3
1.669718054E1,1.698725782E-3
1.670711454E1,2.614308391E-3
1.671704854E1,2.763777841E-3
1.672698254E1,-2.330170255E-3
1.673691754E1,3.463214468E-3
1.674685154E1,-5.477196537E-3
1.675678554E1,-2.988840826E-3
1.676671954E1,-3.660119455E-3
1.677665354E1,2.289111838E-3
1.678658754E1,4.274789728E-3
1.679652154E1,4.087386467E-4
1.680645554E1,5.593775399E-4
1.681638954E1,7.743924502E-3
1.682632354E1,-2.453455143E-3
1.683625754E1,-8.520489559E-4
1.684619254E1,6.354059614E-3
1.685612654E1,2.459247541E-3
1.686606054E1,9.782574512E-4
1.687599454E1,2.078465894E-3
1.688592854E1,-1.998304222E-3
1.689586254E1,-5.400342196E-3
1.690579654E1,8.532987982E-3
1.691573054E1,1.369326543E-3
1.692566454E1,2.708393745E-3
1.693559854E1,3.893204089E-3
1.694553254E1,1.094741296E-2
1.695546654E1,-2.961176187E-3
1.696540154E1,1.059076935E-3
1.697533554E1,2.655421626E-3
1.698526954E1,2.749835886E-4
1.699520354E1,-1.602794901E-3
1.700513754E1,-1.339615379E-3
1.701507154E1,-6.467166692E-3
1.702500554E1,-2.210594695E-3
1.703493954E1,-4.448671304E-3
1.704487354E1,-7.920181509E-3
1.705480754E1,-7.321993075E-4
1.706474154E1,1.673820298E-3
1.707467554E1,5.785472710E-3
1.708461054E1,-7.428339310E-4
1.709454454E1,2.067721635E-3
1.710447854E1,-4.083476141E-3
1.711441254E1,4.867989756E-4
1.712434654E1,3.837893084E-3
1.713428054E1,1.517462097E-3
1.714421454E1,-5.859312080E-3
1.715414854E1,3.762865998E-4
1.716408254E1,-2.246664707E-3
1.717401654E1,2.029952276E-3
1.718395054E1,-5.700359177E-3
1.719388454E1,-1.937748995E-3
1.720381954E1,2.356318273E-3
1.721375321E1,6.328697316E-4
1.722368721E1,-2.737776004E-3
1.723362121E1,1.854188628E-3
1.724355521E1,2.150514554E-3
1.725348921E1,1.960571408E-3
1.726342321E1,6.056016069E-3
1.727335721E1,5.056672096E-3
1.728329121E1,-5.610165875E-3
1.729322521E1,8.941178452E-3
1.730315921E1,-2.466812376E-3
1.731309321E1,-1.023171376E-3
1.732302821E1,2.659679130E-3
1.733296221E1,-7.757336553E-3
1.734289621E1,2.180773895E-3
1.735283021E1,1.508490276E-3
1.736276421E1,-2.846881393E-3
1.737269821E1,-1.168054417E-3
1.738263221E1,-8.761321753E-4
1.739256621E1,-1.011732761E-3
1.740250021E1,3.219166305E-3
1.741243421E1,-2.892361768E-4
1.742236821E1,-4.085997753E-3
1.743230221E1,-2.463157866E-3
1.744223721E1,-5.062592402E-4
1.745217121E1,-4.724605065E-3
1.746210521E1,-5.042967685E-3
1.747203921E1,6.327600963E-3
1.748197321E1,6.716897618E-3
1.749190721E1,-6.753899530E-4
1.750184121E1,-5.946691409E-3
1.751177521E1,-8.670251369E-3
1.752170921E1,-1.518576723E-3
1.753164321E1,7.327767201E-3
1.754157721E1,-2.993957140E-3
1.755151121E1,-4.152984917E-4
1.756144621E1,-1.892049350E-3
1.757138021E1,4.605084322E-3
1.758131421E1,9.821495041E-4
1.759124821E1,-2.346195281E-3
1.760118221E1,-4.907001648E-3
1.761111621E1,-3.989171516E-3
1.762105021E1,3.547048923E-3
1.763098421E1,-5.930483658E-3
1.764091821E1,-6.022997573E-4
1.765085221E1,4.252570309E-3
1.766078621E1,3.963023499E-3
1.767072021E1,-9.258298539E-3
1.768065521E1,-9.750963002E-4
1.769058921E1,-3.386140857E-3
1.770052321E1,-3.665656038E-3
1.771045721E1,2.547723223E-3
1.772039121E1,-2.178891823E-3
1.773032521E1,3.308354616E-3
1.774025921E1,1.911473069E-3
1.775019321E1,-9.206075594E-3
1.776012721E1,-2.730211169E-3
1.777006121E1,-3.005359210E-3
1.777999521E1,2.950103022E-3
1.778992921E1,-4.919481799E-3
1.779986421E1,-4.728917386E-3
1.780979821E1,-7.172066811E-3
1.781973221E1,-9.320279025E-4
1.782966621E1,1.293294467E-3
1.783960021E1,-4.278919324E-3
1.784953421E1,7.194998860E-4
1.785946821E1,-1.113108862E-3
1.786940221E1,3.563549034E-3
1.787933621E1,1.273742840E-3
1.788927021E1,1.516256109E-3
1.789920421E1,3.603346646E-5
1.790913821E1,-7.999173738E-4
1.791907321E1,4.107175637E-3
1.792900721E1,-4.619428273E-3
1.793894121E1,-3.778945841E-3
1.794887521E1,-3.386195675E-3
1.795880921E1,-5.035914481E-4
1.796874321E1,-2.881982960E-3
1.797867721E1,-6.427643169E-3
1.798861121E1,-1.050159931E-3
1.799854521E1,8.844845574E-3
1.800847921E1,3.429684341E-3
1.801841321E1,7.923890837E-4
1.802834721E1,-2.222088128E-3
1.803828221E1,-1.336618681E-3
1.804821621E1,-5.536436141E-3
1.805815021E1,1.160489582E-3
1.806808421E1,5.395591334E-3
1.807801821E1,1.632798426E-3
1.808795221E1,3.789215013E-3
1.809788621E1,1.238020007E-3
1.810782021E1,3.478106596E-3
1.811775421E1,8.909804486E-3
1.812768821E1,1.930074524E-3
1.813762221E1,8.830757439E-4
1.814755721E1,-3.484575078E-4
1.815749121E1,1.528827623E-3
1.816742521E1,-2.150496282E-4
1.817735921E1,3.992405757E-3
1.818729321E1,-6.008233353E-3
1.819722721E1,-4.815510996E-3
1.820716121E1,1.064229794E-3
1.821709571E1,5.585698932E-3
1.822702971E1,1.676816996E-3
1.823696371E1,-8.483323194E-3
1.824689771E1,-1.584047265E-3
1.825683171E1,-1.631135624E-3
1.826676671E1,1.102748327E-4
1.827670071E1,-1.176752150E-3
1.828663471E1,-6.677703001E-4
1.829656871E1,-2.603838220E-3
1.830650271E1,-3.740390763E-3
1.831643671E1,7.413008641E-3
1.832637071E1,-4.214709587E-3
1.833630471E1,-6.226170044E-3
1.834623871E1,-7.823154274E-3
1.835617271E1,-3.216260970E-3
1.836610671E1,2.641625851E-3
1.837604071E1,-3.853662293E-3
1.838597571E1,-2.785704900E-3
1.839590971E1,6.452950649E-4
1.840584371E1,3.696938641E-3
1.841577771E1,5.754263196E-3
1.842571171E1,2.700646184E-3
1.843564571E1,-4.986779597E-3
1.844557971E1,1.238330640E-4
1.845551371E1,-1.099605449E-3
1.846544771E1,2.756889090E-3
1.847538171E1,3.796012402E-3
1.848531571E1,-1.898645740E-3
1.849524971E1,4.580379836E-4
1.850518471E1,8.939844556E-4
1.851511871E1,4.070667084E-3
1.852505271E1,3.239046838E-3
1.853498671E1,2.260497026E-4
1.854492071E1,-4.274004009E-3
1.855485471E1,-3.392298706E-4
1.856478871E1,-7.850800641E-3
1.857472271E1,2.824004162E-3
1.858465671E1,1.295615081E-3
1.859459071E1,6.128612906E-4
1.860452471E1,-5.441565067E-4
1.861445871E1,-1.251486875E-4
1.862439371E1,2.462445237E-3
1.863432771E1,4.935415462E-5
1.864426171E1,3.480226211E-3
1.865419571E1,3.377315216E-4
1.866412971E1,8.898804411E-3
1.867406371E1,-3.968304265E-3
1.868399771E1,-3.622660730E-3
1.869393171E1,2.627007812E-3
1.870386571E1,7.060257085E-3
1.871379971E1,2.255910616E-3
1.872373371E1,-5.333738755E-3
1.873366771E1,7.669134960E-3
1.874360271E1,7.459877729E-3
1.875353671E1,-1.106929086E-2
1.876347071E1,-2.327392828E-3
1.877340471E1,3.158556260E-3
1.878333871E1,4.634978212E-3
1.879327271E1,3.117187209E-3
1.880320671E1,-5.052067414E-3
1.881314071E1,-2.002379000E-3
1.882307471E1,-4.450151380E-3
1.883300871E1,7.103745751E-3
1.884294271E1,-2.597424556E-3
1.885287771E1,-6.871538199E-3
1.886281171E1,2.119615674E-4
1.887274571E1,-1.160727125E-3
1.888267971E1,2.605318297E-3
1.889261371E1,4.276964162E-3
1.890254771E1,-6.013861299E-3
1.891248171E1,-4.731128365E-3
1.892241571E1,-2.715118043E-4
1.893234971E1,6.020256691E-3
1.894228371E1,-4.682633020E-3
1.895221771E1,-6.894726064E-3
1.896215171E1,-4.456236139E-3
1.897208671E1,3.354127351E-3
1.898202071E1,-9.807132818E-3
1.899195471E1,-7.097057998E-5
1.900188871E1,-3.417825457E-3
1.901182271E1,4.329972826E-3
1.902175671E1,2.633622475E-4
1.903169071E1,2.042505518E-3
1.904162471E1,3.502116725E-4
1.905155871E1,-6.450392492E-4
1.906149271E1,-4.225709662E-4
1.907142671E1,7.959650215E-3
1.908136071E1,3.918018211E-3
1.909129571E1,2.433903515E-5
1.910122971E1,4.374448210E-3
1.911116371E1,-2.681167647E-3
1.912109771E1,-3.525377680E-3
1.913103171E1,7.234906107E-3
1.914096571E1,-2.043821141E-3
1.915089971E1,-5.662644636E-3
1.916083371E1,7.858237568E-3
1.917076771E1,3.548181821E-3
1.918070171E1,-5.442771055E-3
1.919063571E1,-4.208058380E-3
1.920057071E1,-3.193310648E-3
1.921050471E1,-7.576547954E-3
1.922043879E1,-1.582402736E-3
1.923037279E1,-7.231653593E-3
1.924030679E1,-1.405648716E-2
1.925024079E1,-8.713082224E-4
1.926017479E1,1.956953444E-3
1.927010879E1,3.200436942E-3
1.928004279E1,2.083088849E-3
1.928997679E1,-5.704251230E-3
1.929991079E1,-3.200436942E-3
1.930984479E1,-5.524522439E-4
1.931977979E1,-1.186802052E-3
1.932971379E1,-3.257995471E-5
1.933964779E1,-8.185151741E-3
1.934958179E1,5.094934814E-4
1.935951579E1,-4.255676642E-3
1.936944979E1,-2.341133785E-3
1.937938379E1,-7.846780680E-4
1.938931779E1,-5.040245075E-3
1.939925179E1,-3.989007063E-3
1.940918579E1,-3.871953115E-4
1.941911979E1,1.098825211E-2
1.942905379E1,5.530808195E-3
1.943898879E1,-1.335248239E-3
1.944892279E1,1.242204420E-2
1.945885679E1,5.769941043E-3
1.946879079E1,4.485344309E-3
1.947872479E1,1.442252286E-3
1.948865879E1,-6.716495622E-3
1.949859279E1,-2.487076633E-3
1.950852679E1,-1.523638219E-3
1.951846079E1,7.841664366E-4
1.952839479E1,3.189491685E-3
1.953832879E1,-1.015789267E-3
1.954826279E1,-2.537837774E-3
1.955819779E1,-7.028937936E-3
1.956813179E1,-1.990465298E-3
1.957806579E1,-2.511854209E-3
1.958799979E1,3.847175539E-3
1.959793379E1,4.611717258E-3
1.960786779E1,4.562180378E-3
1.961780179E1,8.575270660E-3
1.962773579E1,5.100983027E-3
1.963766979E1,7.433802802E-3
1.964760379E1,-4.479698092E-4
1.965753779E1,-9.587752596E-3
1.966747279E1,7.072390057E-4
1.967740679E1,-4.067085665E-3
1.968734079E1,2.948823944E-4
1.969727479E1,2.854628954E-3
1.970720879E1,2.034611776E-3
1.971714279E1,6.237882748E-4
1.972707679E1,-8.659543656E-4
1.973701079E1,-7.103818841E-4
1.974694479E1,-6.201429013E-3
1.975687879E1,1.533487123E-3
1.976681279E1,3.260389175E-3
1.977674679E1,-6.336919963E-4
1.978668179E1,3.875607625E-3
1.979661579E1,3.132280335E-3
1.980654979E1,6.849099509E-3
1.981648379E1,1.122778695E-2
1.982641779E1,-3.956244383E-3
1.983635179E1,-1.416012906E-3
1.984628579E1,7.758195363E-3
1.985621979E1,9.124762751E-4
1.986615379E1,-2.559837922E-3
1.987608779E1,4.138001427E-4
1.988602179E1,-2.144667339E-3
1.989595679E1,1.023080014E-3
1.990589079E1,8.615378905E-3
1.991582479E1,3.399680816E-3
1.992575879E1,1.563033834E-3
1.993569279E1,1.725586429E-3
1.994562679E1,-1.590826381E-3
1.995556079E1,1.128203815E-2
1.996549479E1,4.638358634E-3
1.997542879E1,-4.051754996E-3
1.998536279E1,-6.743867900E-3
1.999529679E1,2.974259332E-3
2.000523079E1,1.073822882E-3
2.001516579E1,-1.125095654E-3
2.002509979E1,6.429671422E-3
2.003503379E1,9.488751926E-4
2.004496779E1,4.402441755E-3
2.005490179E1,5.070212055E-3
2.006483579E1,-3.796578851E-3
2.007476979E1,5.053602308E-3
2.008470379E1,4.617948197E-3
2.009463779E1,-2.238679603E-3
2.010457179E1,-4.551472664E-3
2.011450579E1,-1.627535932E-4
2.012443979E1,-6.876142882E-4
2.013437479E1,5.333683938E-3
2.014430879E1,1.059981426E-2
2.015424279E1,-1.558776330E-3
2.016417679E1,-1.782505419E-3
2.017411079E1,8.850893788E-3
2.018404479E1,3.692754228E-3
2.019397879E1,3.631998003E-3
2.020391279E1,9.506403208E-3
2.021384679E1,4.871242270E-3
2.022378067E1,4.338414744E-3
2.023371467E1,2.014237884E-3
2.024364867E1,6.172594931E-3
2.025358367E1,1.684729010E-3
2.026351767E1,7.884367313E-3
2.027345167E1,-6.760039106E-3
2.028338567E1,6.876215972E-3
2.029331967E1,4.366298653E-3
2.030325367E1,1.155172270E-3
2.031318767E1,6.542614046E-3
2.032312167E1,2.593605593E-4
2.033305567E1,-2.546206601E-3
2.034298967E1,4.932619762E-3
2.035292367E1,2.370278500E-3
2.036285867E1,-1.114974489E-2
2.037279267E1,-1.368613914E-3
2.038272667E1,-3.360340018E-3
2.039266067E1,6.446938980E-3
2.040259467E1,3.187280707E-3
2.041252867E1,3.076987602E-3
2.042246267E1,4.438000135E-3
2.043239667E1,-6.598655954E-3
2.044233067E1,5.056946184E-3
2.045226467E1,2.490420509E-3
2.046219867E1,-7.721613720E-4
2.047213367E1,4.377353545E-3
2.048206767E1,3.278716542E-3
2.049200167E1,-1.971827298E-3
2.050193567E1,-4.273912646E-3
2.051186967E1,1.682865210E-3
2.052180367E1,5.053785034E-3
2.053173767E1,4.269508962E-3
2.054167167E1,-8.041200601E-4
2.055160567E1,-7.231781501E-3
2.056153967E1,-1.147612916E-2
2.057147367E1,2.266216334E-3
2.058140767E1,4.816424623E-3
2.059134267E1,-2.335049026E-4
2.060127667E1,7.099067979E-4
2.061121067E1,3.410388529E-4
2.062114467E1,-6.886028331E-3
2.063107867E1,-1.676506363E-4
2.064101267E1,4.976492152E-3
2.065094667E1,-1.536721364E-5
2.066088067E1,5.207365807E-3
2.067081467E1,7.024040893E-3
2.068074867E1,2.156928219E-3
2.069068267E1,-3.876247164E-3
2.070061667E1,2.487569991E-3
2.071055167E1,8.091267385E-4
2.072048567E1,1.871730275E-3
2.073041967E1,-7.237500809E-3
2.074035367E1,5.690254457E-4
2.075028767E1,7.396325804E-3
2.076022167E1,5.931762736E-3
2.077015567E1,1.968501695E-3
2.078008967E1,1.580940932E-3
2.079002367E1,-4.841238745E-3
2.079995767E1,-1.849181950E-3
2.080989167E1,5.036078934E-3
2.081982667E1,1.893419791E-3
2.082976067E1,-1.899979636E-3
2.083969467E1,-1.660042796E-3
2.084962867E1,-5.158742554E-3
2.085956267E1,-7.725597136E-3
2.086949667E1,-1.697592884E-3
2.087943067E1,6.225238144E-3
2.088936467E1,5.913545005E-4
2.089929867E1,5.610037968E-4
2.090923267E1,2.582477611E-3
2.091916667E1,-2.784553729E-3
2.092910167E1,3.631687369E-3
2.093903567E1,-2.498040162E-4
2.094896967E1,4.785032384E-4
2.095890367E1,-5.762741659E-3
2.096883767E1,-5.465246290E-3
2.097877167E1,-1.520239525E-3
2.098870567E1,3.786072135E-5
2.099863967E1,-6.798119098E-3
2.100857367E1,-1.220697630E-3
2.101850767E1,-4.083202053E-3
2.102844167E1,2.368268520E-3
2.103837567E1,-4.165099617E-3
2.104831067E1,4.787097182E-3
2.105824467E1,1.140609048E-2
2.106817867E1,-3.572941124E-3
2.107811267E1,-1.930513065E-3
2.108804667E1,6.148986798E-3
2.109798067E1,-2.489433791E-3
2.110791467E1,1.081095356E-3
2.111784867E1,-8.284408227E-3
2.112778267E1,4.166323878E-4
2.113771667E1,1.107407827E-3
2.114765067E1,-7.650131509E-3
2.115758567E1,2.359515969E-3
2.116751967E1,3.554650303E-3
2.117745367E1,-1.745795868E-3
2.118738767E1,-3.867549431E-3
2.119732167E1,4.272651840E-3
2.120725567E1,7.567448225E-3
2.121718992E1,-2.690833826E-3
2.122712392E1,2.951820642E-3
2.123705792E1,-1.349062286E-3
2.124699192E1,-3.387876749E-3
2.125692592E1,-5.729924161E-3
2.126685992E1,2.917413432E-3
2.127679492E1,4.535557274E-3
2.128672892E1,-2.208602987E-4
2.129666292E1,6.925296038E-5
2.130659692E1,3.239832558E-3
2.131653092E1,-2.852728609E-3
2.132646492E1,-4.794004206E-3
2.133639892E1,-8.630673029E-4
2.134633292E1,2.151373364E-3
2.135626692E1,9.294332005E-3
2.136620092E1,1.167688966E-3
2.137613492E1,4.739899188E-4
2.138606992E1,-5.155014955E-3
2.139600392E1,-1.211543083E-3
2.140593792E1,3.059646953E-3
2.141587192E1,-1.433243919E-3
2.142580592E1,-5.130675919E-3
2.143573992E1,2.408029586E-3
2.144567392E1,4.695314169E-3
2.145560792E1,7.064624224E-3
2.146554192E1,-3.692315686E-3
2.147547592E1,2.778998874E-3
2.148540992E1,-1.498349011E-6
2.149534492E1,-2.865263578E-3
2.150527892E1,-8.371531740E-3
2.151521292E1,2.784279641E-3
2.152514692E1,-7.426694781E-4
2.153508092E1,-2.320266534E-3
2.154501492E1,-4.200603180E-3
2.155494892E1,-9.491730351E-3
2.156488292E1,-6.821142510E-4
2.157481692E1,-1.374424584E-3
2.158475092E1,5.755670182E-3
2.159468492E1,3.700501788E-3
2.160461892E1,1.627170481E-4
2.161455392E1,-4.647750724E-3
2.162448792E1,-6.547474544E-3
2.163442192E1,-1.775488760E-3
2.164435592E1,-2.348698620E-3
2.165428992E1,-8.705937658E-3
2.166422392E1,1.463996619E-3
2.167415792E1,-8.115387149E-4
2.168409192E1,-9.331900366E-3
2.169402592E1,3.189674411E-3
2.170395992E1,1.561462395E-3
2.171389392E1,-2.299015559E-3
2.172382892E1,-8.802252263E-4
2.173376292E1,3.750020396E-3
2.174369692E1,-3.648973200E-3
2.175363092E1,2.796284705E-3
2.176356492E1,5.215935633E-3
2.177349892E1,5.828760378E-3
2.178343292E1,2.385645714E-3
2.179336692E1,-1.737189498E-3
2.180330092E1,5.524376258E-3
2.181323492E1,-2.953117993E-3
2.182316892E1,-3.121060990E-3
2.183310392E1,3.475146443E-3
2.184303792E1,2.409345210E-3
2.185297192E1,-2.022076808E-3
2.186290592E1,-6.228801291E-3
2.187283992E1,5.108821951E-4
2.188277392E1,1.048168223E-3
2.189270792E1,-3.827185370E-4
2.190264192E1,-9.943025764E-3
2.191257592E1,3.251855895E-3
2.192250992E1,1.693883557E-3
2.193244392E1,3.835481107E-3
2.194237792E1,1.085773129E-3
2.195231292E1,-1.924135946E-3
2.196224692E1,3.632747177E-3
2.197218092E1,-8.855059929E-4
2.198211492E1,1.522231232E-3
2.199204892E1,1.206092382E-2
2.200198292E1,9.848903865E-4
2.201191692E1,3.838258535E-3
2.202185092E1,-9.811993316E-4
2.203178492E1,3.864461370E-3
2.204171892E1,7.622211054E-4
2.205165292E1,1.360720173E-3
2.206158692E1,-1.319935843E-3
2.207152192E1,-7.907957174E-3
2.208145592E1,7.718379479E-3
2.209138992E1,-3.722337484E-3
2.210132392E1,9.319968391E-3
2.211125792E1,9.792587869E-3
2.212119192E1,9.119518530E-3
2.213112592E1,1.665835194E-3
2.214105992E1,-6.323635820E-3
2.215099392E1,-9.168689959E-3
2.216092792E1,1.560475677E-4
2.217086192E1,2.413292080E-3
2.218079692E1,-2.741996963E-3
2.219073092E1,4.877802115E-3
2.220066492E1,2.857790105E-3
2.221059892E1,-6.021024138E-3
2.222053267E1,5.579102542E-3
2.223046667E1,-6.037706975E-3
2.224040067E1,-7.731846347E-4
2.225033467E1,-1.999747753E-4
2.226026867E1,-5.671561640E-3
2.227020267E1,-8.958994187E-3
2.228013667E1,7.357624546E-4
2.229007167E1,1.117841452E-3
2.230000567E1,-5.626976620E-3
2.230993967E1,3.836741913E-3
2.231987367E1,-9.669832885E-5
2.232980767E1,-7.569403388E-4
2.233974167E1,3.294083755E-3
2.234967567E1,1.431983113E-3
2.235960967E1,2.751078419E-3
2.236954367E1,3.449985143E-3
2.237947767E1,3.129356727E-3
2.238941167E1,-3.385227229E-3
2.239934667E1,1.908385009E-4
2.240928067E1,1.268907923E-2
2.241921467E1,-1.317816228E-4
2.242914867E1,6.188912317E-5
2.243908267E1,6.464297902E-3
2.244901667E1,-2.010364104E-3
2.245895067E1,-1.439949945E-3
2.246888467E1,2.819454297E-4
2.247881867E1,7.009331491E-3
2.248875267E1,3.446074817E-3
2.249868667E1,2.841582354E-3
2.250862167E1,4.169923570E-3
2.251855567E1,-2.116673794E-3
2.252848967E1,-6.328094322E-3
2.253842367E1,-2.219420336E-3
2.254835767E1,-2.693117894E-3
2.255829167E1,-2.155411597E-3
2.256822567E1,9.382405691E-4
2.257815967E1,5.839723907E-3
2.258809367E1,3.999733049E-3
2.259802767E1,-1.848377958E-3
2.260796167E1,-2.541364376E-3
2.261789567E1,2.103316560E-3
2.262783067E1,-2.267988771E-3
2.263776467E1,1.974001732E-3
2.264769867E1,6.844440009E-3
2.265763267E1,1.209606193E-3
2.266756667E1,-2.620667238E-3
2.267750067E1,-4.265214913E-3
2.268743467E1,4.703098275E-3
2.269736867E1,4.213960413E-3
2.270730267E1,2.893001307E-3
2.271723667E1,-1.731652915E-3
2.272717067E1,-4.048027396E-3
2.273710567E1,-7.334418409E-3
2.274703967E1,6.226553768E-4
2.275697367E1,3.628233857E-3
2.276690767E1,-7.508446164E-3
2.277684167E1,1.833284833E-4
2.278677567E1,3.219403848E-3
2.279670967E1,-9.429329596E-3
2.280664367E1,-7.741823159E-3
2.281657767E1,2.489561699E-3
2.282651167E1,7.848808933E-3
2.283644567E1,-1.298520416E-3
2.284637967E1,-2.842093986E-3
2.285631467E1,5.952008720E-3
2.286624867E1,1.219436824E-3
2.287618267E1,5.618077889E-4
2.288611667E1,1.206487069E-2
2.289605067E1,-1.133775115E-3
2.290598467E1,-2.763631660E-3
2.291591867E1,4.122542851E-3
2.292585267E1,1.977692787E-3
2.293578667E1,-3.152489774E-3
2.294572067E1,8.501851559E-4
2.295565467E1,3.409145996E-3
2.296558967E1,-3.004957214E-3
2.297552367E1,4.699516855E-4
2.298545767E1,1.962453481E-3
2.299539167E1,-3.259311095E-3
2.300532567E1,9.987775236E-5
2.301525967E1,-2.426302135E-3
2.302519367E1,-2.780168317E-4
2.303512767E1,-4.141217396E-3
2.304506167E1,2.309997361E-3
2.305499567E1,8.184274659E-5
2.306492967E1,3.217631411E-3
2.307486467E1,3.544454221E-3
2.308479867E1,2.968083210E-3
2.309473267E1,-2.151939813E-3
2.310466667E1,-2.701413631E-4
2.311460067E1,-7.919505425E-4
2.312453467E1,2.053743135E-3
2.313446867E1,3.821886331E-4
2.314440267E1,-6.170731131E-3
2.315433667E1,2.406512965E-3
2.316427067E1,-4.858670756E-5
2.317420467E1,6.533203684E-3
2.318413967E1,1.618783381E-3
2.319407367E1,4.440138023E-3
2.320400767E1,-2.251360752E-4
2.321394167E1,-1.050777543E-2
2.322387617E1,-6.174367368E-3
2.323381017E1,-7.118875422E-3
2.324374417E1,-4.299713485E-4
2.325367817E1,2.824972607E-3
2.326361217E1,4.121336862E-3
2.327354617E1,2.944548167E-3
2.328348017E1,-5.915006809E-4
2.329341417E1,3.925089687E-3
2.330334917E1,-4.424478449E-3
2.331328317E1,6.303316746E-3
2.332321717E1,3.528593648E-3
2.333315117E1,-5.772480927E-4
2.334308517E1,-6.005455926E-4
2.335301917E1,-8.045056108E-3
2.336295317E1,-7.131830659E-3
2.337288717E1,5.158961825E-3
2.338282117E1,-1.568479054E-3
2.339275517E1,5.472792853E-3
2.340269017E1,-6.418415532E-4
2.341262417E1,-6.129654441E-3
2.342255817E1,3.733593374E-3
2.343249217E1,-7.176123317E-3
2.344242617E1,-3.624360077E-3
2.345236017E1,3.447463531E-3
2.346229417E1,1.120785160E-2
2.347222817E1,5.659958571E-3
2.348216217E1,7.131684478E-3
2.349209617E1,3.599527683E-3
2.350203017E1,2.569650281E-3
2.351196417E1,-6.337102689E-4
2.352189917E1,7.317424938E-3
2.353183317E1,5.976037122E-4
2.354176717E1,2.128624041E-3
2.355170117E1,-8.337087985E-3
2.356163517E1,-2.000789288E-3
2.357156917E1,-2.671739012E-3
2.358150317E1,9.223471060E-3
2.359143717E1,3.745269533E-3
2.360137117E1,-1.396589186E-3
2.361130517E1,-8.925043792E-4
2.362123917E1,3.940657899E-4
2.363117417E1,2.726885565E-3
2.364110817E1,-4.247837719E-3
2.365104217E1,6.321571022E-3
2.366097617E1,4.162559733E-3
2.367091017E1,-1.990026757E-3
2.368084417E1,-2.163725607E-3
2.369077817E1,5.639968403E-3
2.370071217E1,2.163469791E-4
2.371064617E1,-3.711684588E-3
2.372058017E1,4.961216301E-3
2.373051417E1,-2.177813742E-3
2.374044917E1,3.675614577E-3
2.375038317E1,-1.616243497E-3
2.376031717E1,2.512658201E-3
2.377025117E1,3.855032735E-3
2.378018517E1,7.567484770E-3
2.379011917E1,4.148435052E-3
2.380005317E1,5.631416850E-4
2.380998717E1,5.888493340E-3
2.381992117E1,-8.832712602E-3
2.382985517E1,1.208623130E-2
2.383978917E1,7.837059684E-3
2.384972417E1,1.027222401E-2
2.385965817E1,8.348197695E-3
2.386959217E1,1.139625985E-2
2.387952617E1,-3.169757333E-3
2.388946017E1,3.096868135E-3
2.389939417E1,3.987526987E-3
2.390932817E1,1.634899769E-3
2.391926217E1,-5.175151303E-3
2.392919617E1,7.024388071E-3
2.393913017E1,4.371816963E-3
2.394906417E1,-2.632873300E-3
2.395899917E1,4.751520529E-3
2.396893317E1,-1.058620121E-2
2.397886717E1,-7.069831900E-4
2.398880117E1,-1.822211668E-3
2.399873517E1,5.536490958E-3
2.400866917E1,6.289575789E-3
2.401860317E1,-6.324695628E-3
2.402853717E1,9.366526846E-3
2.403847117E1,-2.369858231E-3
2.404840517E1,3.341318294E-4
2.405833917E1,4.212242793E-3
2.406827417E1,3.167327084E-3
2.407820817E1,2.898208983E-3
2.408814217E1,-2.539317850E-3
2.409807617E1,3.001558520E-3
2.410801017E1,1.595741697E-4
2.411794417E1,9.347486850E-3
2.412787817E1,-2.986428849E-3
2.413781217E1,-4.836469609E-3
2.414774617E1,6.977902707E-3
2.415768017E1,1.350567944E-2
2.416761417E1,2.186310478E-4
2.417754917E1,-9.642095156E-3
2.418748317E1,3.532412611E-3
2.419741717E1,4.317492675E-3
2.420735117E1,1.837670244E-4
2.421728517E1,7.963889446E-3
2.422721867E1,1.976066530E-3
2.423715267E1,6.253597140E-4
2.424708667E1,-1.309087431E-2
2.425702067E1,2.318311371E-3
2.426695467E1,-5.961784534E-4
2.427688867E1,-2.324633673E-4
2.428682367E1,-9.514698945E-4
2.429675767E1,-1.798292901E-3
2.430669167E1,-1.314545441E-3
2.431662567E1,7.747743465E-3
2.432655967E1,3.046728261E-3
2.433649367E1,-1.898389924E-3
2.434642767E1,7.860137913E-3
2.435636167E1,2.035561949E-4
2.436629567E1,4.090821706E-3
2.437622967E1,7.945160083E-3
2.438616367E1,-3.815125488E-4
2.439609767E1,2.890735511E-3
2.440603267E1,3.438893706E-3
2.441596667E1,-6.644081511E-4
2.442590067E1,-4.087861553E-3
2.443583467E1,-1.950960048E-4
2.444576867E1,-5.500822943E-3
2.445570267E1,5.788158774E-3
2.446563667E1,9.204979241E-4
2.447557067E1,-3.539812993E-3
2.448550467E1,-1.082922611E-3
2.449543867E1,4.665511642E-3
2.450537367E1,6.321790293E-3
2.451530767E1,2.412981447E-3
2.452524167E1,-5.989741534E-4
2.453517567E1,8.535838500E-3
2.454510967E1,6.778896376E-3
2.455504367E1,2.328708451E-3
2.456497767E1,-1.995947063E-3
2.457491167E1,7.963962536E-3
2.458484567E1,1.031158308E-2
2.459477967E1,4.507508911E-3
2.460471367E1,8.148716278E-3
2.461464867E1,7.812976465E-3
2.462458267E1,2.576137036E-3
2.463451667E1,5.565178860E-3
2.464445067E1,6.107763927E-3
2.465438467E1,3.747389149E-3
2.466431867E1,2.003584988E-3
2.467425267E1,7.518824972E-3
2.468418667E1,2.906906717E-3
2.469412067E1,4.079638906E-3
2.470405467E1,2.203121223E-4
2.471398867E1,5.583762042E-3
2.472392367E1,-1.107590552E-3
2.473385767E1,3.541987427E-3
2.474379167E1,7.126842253E-4
2.475372567E1,9.571892023E-4
2.476365967E1,-4.713623263E-3
2.477359367E1,4.377116002E-3
2.478352767E1,4.246595185E-3
2.479346167E1,2.309357822E-3
2.480339567E1,3.318203520E-3
2.481332967E1,8.445078749E-3
2.482326367E1,1.975865532E-3
2.483319867E1,3.360943012E-3
2.484313267E1,1.274656467E-3
2.485306667E1,8.417998832E-3
2.486300067E1,2.514156550E-3
2.487293467E1,-7.724354602E-4
2.488286867E1,2.664174177E-3
2.489280267E1,-1.493415423E-4
2.490273667E1,-4.633973222E-3
2.491267067E1,-1.438890137E-3
2.492260467E1,-6.400910430E-3
2.493253867E1,3.895013072E-3
2.494247367E1,2.566087134E-3
2.495240767E1,7.983568981E-3
2.496234167E1,5.199526884E-3
2.497227567E1,3.624688983E-3
2.498220967E1,-2.996862475E-3
2.499214367E1,4.699663036E-3
2.500207767E1,2.422592808E-3
2.501201167E1,3.503834344E-3
2.502194567E1,3.286610283E-3
2.503187967E1,-2.597260103E-4
2.504181367E1,9.449082222E-3
2.505174867E1,-6.903368980E-4
2.506168267E1,2.359351516E-4
2.507161667E1,7.913000397E-3
2.508155067E1,2.116801701E-3
2.509148467E1,2.467013374E-3
2.510141867E1,-7.914096750E-3
2.511135267E1,-2.056611925E-3
2.512128667E1,1.900399905E-3
2.513122067E1,-9.431357849E-3
2.514115467E1,1.473754160E-3
2.515108867E1,-2.205642834E-3
2.516102367E1,-3.980510328E-3
2.517095767E1,-7.964163534E-3
2.518089167E1,1.007944861E-2
2.519082567E1,-1.307181604E-3
2.520075967E1,1.645790208E-3
2.521069367E1,1.099733356E-3
2.522062717E1,9.636759572E-4
2.523056117E1,1.339341290E-3
2.524049517E1,6.429689694E-3
2.525042917E1,2.828645390E-3
2.526036317E1,-3.749545310E-3
2.527029817E1,5.384755712E-3
2.528023217E1,3.164933380E-3
2.529016617E1,-2.343363035E-3
2.530010017E1,2.131876554E-3
2.531003417E1,2.322440967E-3
2.531996817E1,8.097936865E-3
2.532990217E1,4.535612091E-4
2.533983617E1,7.544845082E-3
2.534977017E1,4.253155030E-3
2.535970417E1,5.934923887E-4
2.536963817E1,1.848049052E-3
2.537957317E1,1.126594003E-3
2.538950717E1,-3.712872304E-3
2.539944117E1,9.403601848E-4
2.540937517E1,5.312341601E-3
2.541930917E1,-3.016816098E-3
2.542924317E1,7.079881802E-4
2.543917717E1,-3.052739929E-3
2.544911117E1,2.326095477E-3
2.545904517E1,6.550507788E-3
2.546897917E1,4.555017538E-3
2.547891317E1,1.246005110E-4
2.548884817E1,-3.725644816E-3
2.549878217E1,7.089748979E-5
2.550871617E1,-1.946538091E-3
2.551865017E1,5.904664546E-3
2.552858417E1,4.742530435E-3
2.553851817E1,-4.600296915E-3
2.554845217E1,-4.134712368E-3
2.555838617E1,-2.400702294E-3
2.556832017E1,7.560797017E-3
2.557825417E1,-1.929014716E-3
2.558818817E1,-6.581242215E-3
2.559812317E1,6.108348649E-3
2.560805717E1,4.250925779E-4
2.561799117E1,2.970239371E-3
2.562792517E1,1.284340918E-3
2.563785917E1,7.285265252E-5
2.564779317E1,6.909563374E-3
2.565772717E1,8.687665109E-3
2.566766117E1,7.174734604E-3
2.567759517E1,1.548287887E-3
2.568752917E1,5.251621921E-3
2.569746417E1,1.629801728E-3
2.570739817E1,-3.250668179E-3
2.571733217E1,-2.785887625E-3
2.572726617E1,3.092135545E-3
2.573720017E1,4.706716239E-3
2.574713417E1,5.786368065E-4
2.575706817E1,-4.498518817E-3
2.576700217E1,1.029566769E-3
2.577693617E1,5.849408358E-4
2.578687017E1,-4.589516111E-3
2.579680417E1,-5.070486143E-3
2.580673917E1,-2.443898600E-3
2.581667317E1,5.104107633E-3
2.582660717E1,6.026834808E-3
2.583654117E1,2.757601719E-3
2.584647517E1,2.152835168E-3
2.585640917E1,-1.345769573E-2
2.586634317E1,2.010839190E-3
2.587627717E1,-3.857956342E-3
2.588621117E1,3.695860561E-3
2.589614517E1,3.921398632E-3
2.590607917E1,-3.639818653E-3
2.591601417E1,-3.975997008E-3
2.592594817E1,1.016501896E-4
2.593588217E1,1.148100793E-3
2.594581617E1,4.315464422E-3
2.595575017E1,1.000197301E-2
2.596568417E1,3.562142048E-3
2.597561817E1,4.499341082E-3
2.598555217E1,-2.250026856E-3
2.599548617E1,-5.775221810E-4
2.600542017E1,-3.397214022E-3
2.601535417E1,1.442544647E-3
2.602528917E1,-2.993664779E-3
2.603522317E1,1.574088726E-3
2.604515717E1,9.732873179E-4
2.605509117E1,-2.094819825E-3
2.606502517E1,-2.050947435E-3
2.607495917E1,3.870674036E-4
2.608489317E1,1.619587373E-3
2.609482717E1,4.640935063E-3
2.610476117E1,4.364654124E-3
2.611469517E1,-8.017555922E-3
2.612463017E1,3.906963319E-3
2.613456417E1,5.252389368E-3
2.614449817E1,4.299859665E-3
2.615443217E1,4.459251110E-3
2.616436617E1,-2.316228300E-3
2.617430017E1,-4.534515738E-3
2.618423417E1,3.785761502E-3
2.619416817E1,2.503521927E-4
2.620410217E1,-6.197500415E-4
2.621403617E1,-2.893348485E-3
2.622397029E1,-1.123195309E-3
2.623390529E1,9.245928023E-3
2.624383929E1,-1.660170704E-3
2.625377329E1,6.877111327E-3
2.626370729E1,-4.771236610E-3
2.627364129E1,2.047987282E-4
2.628357529E1,3.240453824E-3
2.629350929E1,5.388629492E-3
2.630344329E1,4.860297013E-3
2.631337729E1,9.113616496E-4
2.632331129E1,5.868996531E-3
2.633324629E1,2.483769301E-3
2.634318029E1,-1.104073087E-2
2.635311429E1,5.659739301E-4
2.636304829E1,-1.602886263E-3
2.637298229E1,-1.416561082E-3
2.638291629E1,2.917102799E-3
2.639285029E1,-3.870125860E-5
2.640278429E1,-2.913484834E-3
2.641271829E1,-1.086261006E-2
2.642265229E1,6.367983297E-4
2.643258629E1,2.047439106E-4
2.644252129E1,1.933546308E-3
2.645245529E1,1.918562818E-3
2.646238929E1,-2.556146868E-4
2.647232329E1,2.099808231E-3
2.648225729E1,-5.996484105E-3
2.649219129E1,-7.854491696E-3
2.650212529E1,-2.915038001E-3
2.651205929E1,-8.244062439E-3
2.652199329E1,-6.172521841E-3
2.653192729E1,-4.829562586E-3
2.654186229E1,-1.212531628E-2
2.655179629E1,-3.649832010E-3
2.656173029E1,6.312142387E-3
2.657166429E1,3.028583620E-3
2.658159829E1,-3.147062827E-3
2.659153229E1,-1.516475379E-3
2.660146629E1,-2.534859348E-3
2.661140029E1,-1.002548978E-2
2.662133429E1,3.108325023E-3
2.663126829E1,4.610273726E-3
2.664120229E1,2.673018090E-3
2.665113729E1,2.958380487E-3
2.666107129E1,4.934337381E-3
2.667100529E1,3.904624432E-3
2.668093929E1,-1.929471530E-3
2.669087329E1,-4.214398954E-3
2.670080729E1,5.539981015E-3
2.671074129E1,2.098090611E-3
2.672067529E1,5.057750177E-3
2.673060929E1,2.940528207E-3
2.674054329E1,5.210545231E-3
2.675047829E1,2.264663167E-3
2.676041229E1,4.889313821E-3
2.677034629E1,-4.311864730E-3
2.678028029E1,-2.564332969E-3
2.679021429E1,-7.936864346E-4
2.680014829E1,-2.069457527E-3
2.681008229E1,-2.854702044E-3
2.682001629E1,-5.118890125E-3
2.682995029E1,-7.822112739E-4
2.683988429E1,1.140773501E-3
2.684981829E1,4.938119799E-3
2.685975329E1,3.679908626E-4
2.686968729E1,-1.536337640E-3
2.687962129E1,7.785056010E-3
2.688955529E1,2.095989268E-3
2.689948929E1,2.971207816E-3
2.690942329E1,3.192945197E-3
2.691935729E1,3.504272886E-3
2.692929129E1,-1.308533773E-3
2.693922529E1,-6.666940469E-3
2.694915929E1,-7.161011919E-4
2.695909329E1,-1.605444420E-3
2.696902829E1,1.624941230E-3
2.697896229E1,-2.683597896E-3
2.698889629E1,-2.449051458E-3
2.699883029E1,-2.019208018E-3
2.700876429E1,-8.423645049E-6
2.701869829E1,-3.786218315E-3
2.702863229E1,2.369511053E-3
2.703856629E1,-2.307366114E-3
2.704850029E1,-1.895356681E-3
2.705843429E1,6.603589542E-3
2.706836929E1,-4.215111583E-3
2.707830329E1,-7.736414485E-4
2.708823729E1,9.063915163E-4
2.709817129E1,5.289720185E-4
2.710810529E1,1.386703737E-3
2.711803929E1,-9.978456236E-4
2.712797329E1,-6.929864176E-3
2.713790729E1,4.247654993E-3
2.714784129E1,6.743027363E-3
2.715777529E1,-8.192771394E-3
2.716771029E1,-1.708227508E-3
2.717764429E1,5.362042934E-3
2.718757829E1,-5.838993005E-3
2.719751229E1,-7.413812634E-3
2.720744629E1,-2.978754379E-3
2.721738029E1,-1.634918042E-3
2.722731479E1,-5.627945065E-5
2.723724879E1,8.715019114E-3
2.724718279E1,-5.286540762E-3
2.725711679E1,-3.889787123E-3
2.726705079E1,-1.294244640E-3
2.727698579E1,4.601484630E-3
2.728691979E1,5.443045143E-3
2.729685379E1,5.880873688E-3
2.730678779E1,1.714001633E-3
2.731672179E1,-5.584639125E-4
2.732665579E1,-7.937430795E-3
2.733658979E1,8.243477717E-4
2.734652379E1,9.479049202E-3
2.735645779E1,-1.065070331E-3
2.736639179E1,2.425753959E-3
2.737632679E1,4.163838811E-3
2.738626079E1,-1.112231780E-3
2.739619479E1,5.196292643E-3
2.740612879E1,6.682819314E-4
2.741606279E1,-1.356078945E-3
2.742599679E1,-7.643553391E-3
2.743593079E1,2.453382052E-3
2.744586479E1,7.229899429E-4
2.745579879E1,-1.787658278E-3
2.746573279E1,3.872610927E-3
2.747566779E1,1.655127481E-3
2.748560179E1,-5.492764749E-3
2.749553579E1,-1.862374730E-3
2.750546979E1,5.169322360E-3
2.751540379E1,5.848129280E-4
2.752533779E1,2.648130879E-3
2.753527179E1,-6.872122921E-4
2.754520579E1,-4.299603850E-3
2.755513979E1,-9.151294492E-3
2.756507379E1,8.066361900E-3
2.757500779E1,7.717721667E-3
2.758494279E1,1.696533076E-3
2.759487679E1,1.287849247E-4
2.760481079E1,2.155283689E-3
2.761474479E1,9.903849419E-3
2.762467879E1,-2.843976058E-3
2.763461279E1,4.356632475E-3
2.764454679E1,-2.914562915E-3
2.765448079E1,6.372021530E-3
2.766441479E1,5.480101872E-3
2.767434879E1,5.646729246E-3
2.768428379E1,7.337323744E-3
2.769421779E1,-8.408113383E-4
2.770415179E1,-7.118985057E-5
2.771408579E1,1.384907546E-2
2.772401979E1,3.606599160E-3
2.773395379E1,1.283025295E-3
2.774388779E1,3.952096514E-3
2.775382179E1,5.485601909E-4
2.776375579E1,-3.095059153E-3
2.777368979E1,7.830646019E-3
2.778362479E1,7.292683907E-3
2.779355879E1,3.633679077E-3
2.780349279E1,-3.884414993E-3
2.781342679E1,1.182867972E-2
2.782336079E1,6.600574572E-3
2.783329479E1,-4.999460746E-3
2.784322879E1,7.720444277E-3
2.785316279E1,2.929783948E-3
2.786309679E1,2.193729132E-3
2.787303079E1,1.081301836E-2
2.788296579E1,-3.393413331E-3
2.789289979E1,-4.083549231E-3
2.790283379E1,7.982253358E-3
2.791276779E1,-1.332178451E-3
2.792270179E1,-1.307766326E-3
2.793263579E1,-1.386886463E-4
2.794256979E1,-5.047206916E-3
2.795250379E1,-9.020938128E-3
2.796243779E1,-1.086595394E-3
2.797237179E1,3.668068014E-3
2.798230579E1,5.230681580E-3
2.799224079E1,-4.730872549E-3
2.800217479E1,3.507963941E-4
2.801210879E1,7.996688671E-3
2.802204279E1,7.506655455E-3
2.803197679E1,-8.918465674E-3
2.804191079E1,-5.112275463E-3
2.805184479E1,4.511949141E-3
2.806177879E1,3.742656559E-3
2.807171279E1,4.641958326E-3
2.808164679E1,-4.284291454E-3
2.809158179E1,3.756105155E-4
2.810151579E1,8.423352689E-3
2.811144979E1,3.157551270E-3
2.812138379E1,-2.216880452E-3
2.813131779E1,2.259418946E-3
2.814125179E1,2.915202454E-3
2.815118579E1,3.904441707E-3
2.816111979E1,4.176812321E-3
2.817105379E1,-2.405416612E-3
2.818098779E1,9.359747730E-3
2.819092279E1,3.010036983E-4
2.820085679E1,1.319716573E-3
2.821079079E1,-7.563556172E-4
2.822072479E1,7.397586610E-3
2.823065817E1,-1.536100097E-3
2.824059217E1,-9.212288260E-4
2.825052617E1,-4.323285073E-4
2.826046017E1,-3.570620511E-3
2.827039417E1,-2.045977302E-3
2.828032817E1,6.574463099E-3
2.829026317E1,-3.696719371E-4
2.830019717E1,-2.369913049E-3
2.831013117E1,5.267829672E-3
2.832006517E1,8.968167007E-5
2.832999917E1,1.739546657E-5
2.833993317E1,1.272207946E-3
2.834986717E1,7.175684776E-3
2.835980117E1,-3.370115831E-3
2.836973517E1,-4.347222112E-4
2.837966917E1,1.254757661E-3
2.838960417E1,3.119124100E-4
2.839953817E1,1.324101985E-3
2.840947217E1,1.192978173E-3
2.841940617E1,7.421925645E-3
2.842934017E1,-2.195373662E-3
2.843927417E1,4.525964186E-3
2.844920817E1,-1.999729481E-3
2.845914217E1,4.334614053E-4
2.846907617E1,7.820650935E-4
2.847901017E1,8.233793266E-4
2.848894517E1,3.101326637E-3
2.849887917E1,2.586662024E-4
2.850881317E1,-3.987618349E-4
2.851874717E1,3.877215609E-3
2.852868117E1,8.299574442E-4
2.853861517E1,3.385208957E-3
2.854854917E1,5.932731181E-3
2.855848317E1,-3.424038123E-3
2.856841717E1,2.150679007E-4
2.857835117E1,4.133817013E-3
2.858828517E1,4.512588680E-4
2.859822017E1,3.595800083E-3
2.860815417E1,6.942965593E-3
2.861808817E1,-4.993284624E-3
2.862802217E1,1.101688519E-3
2.863795617E1,-1.159173958E-3
2.864789017E1,4.829142317E-3
2.865782417E1,9.174025543E-3
2.866775817E1,1.019133143E-2
2.867769217E1,4.013748094E-4
2.868762717E1,4.482713062E-3
2.869756117E1,4.931724407E-3
2.870749517E1,-9.350447003E-3
2.871742917E1,-1.880994458E-3
2.872736317E1,4.588383213E-3
2.873729717E1,6.447816063E-3
2.874723117E1,-4.830585849E-3
2.875716517E1,4.160896931E-3
2.876709917E1,2.005357426E-3
2.877703317E1,-7.752658781E-3
2.878696817E1,-2.613979485E-3
2.879690217E1,-7.666193079E-3
2.880683617E1,-2.248656414E-3
2.881677017E1,2.363389749E-3
2.882670417E1,4.942834117E-3
2.883663817E1,-9.433440920E-3
2.884657217E1,3.733465467E-3
2.885650617E1,1.802605223E-3
2.886644017E1,3.858340066E-3
2.887637417E1,-1.501747705E-3
2.888630917E1,1.834856272E-3
2.889624317E1,6.356325410E-3
2.890617717E1,-3.048135247E-3
2.891611117E1,1.232245881E-2
2.892604517E1,2.605245207E-3
2.893597917E1,4.549700227E-3
2.894591317E1,8.633048460E-4
2.895584717E1,7.327292114E-4
2.896578117E1,-1.828935966E-3
2.897571517E1,-8.219595496E-3
2.898565017E1,-3.935249224E-3
2.899558417E1,7.633229401E-3
2.900551817E1,7.827082872E-3
2.901545217E1,6.763839796E-3
2.902538617E1,7.494230121E-3
2.903532017E1,-8.386295959E-3
2.904525417E1,3.337407969E-3
2.905518817E1,7.639752701E-4
2.906512217E1,3.753912449E-3
2.907505617E1,3.523495607E-3
2.908499117E1,5.117044598E-3
2.909492517E1,8.044708930E-3
2.910485917E1,3.978957161E-3
2.911479317E1,2.362969480E-3
2.912472717E1,8.034147397E-3
2.913466117E1,5.171588156E-3
2.914459517E1,7.877478562E-4
2.915452917E1,-2.921268940E-3
2.916446317E1,-4.569050856E-4
2.917439717E1,3.348261863E-4
2.918433217E1,2.908660881E-3
2.919426617E1,2.275115065E-4
2.920420017E1,4.930079877E-3
2.921413417E1,1.637220383E-3
2.922406842E1,3.508841023E-3
2.923400242E1,2.447681017E-3
2.924393642E1,6.907699574E-3
2.925387042E1,5.484249741E-3
2.926380442E1,-9.243004415E-3
2.927373842E1,2.537782956E-3
2.928367342E1,2.844195329E-3
2.929360742E1,2.018239573E-3
2.930354142E1,3.384258784E-4
2.931347542E1,4.574605711E-3
2.932340942E1,3.073990904E-4
2.933334342E1,-4.479588456E-3
2.934327742E1,1.351455990E-3
2.935321142E1,-2.104394641E-3
2.936314542E1,-5.239306223E-3
2.937307942E1,1.211195905E-3
2.938301442E1,1.960480046E-3
2.939294842E1,3.425097931E-3
2.940288242E1,-1.165678985E-3
2.941281642E1,-7.405498624E-4
2.942275042E1,5.114413351E-3
2.943268442E1,6.094991416E-4
2.944261842E1,-4.539211784E-3
2.945255242E1,6.373209246E-3
2.946248642E1,-6.807072647E-3
2.947242142E1,-1.048259586E-3
2.948235542E1,2.292638440E-3
2.949228942E1,6.526351478E-3
2.950222342E1,9.392017052E-3
2.951215742E1,-1.376233567E-3
2.952209142E1,-3.469226137E-4
2.953202542E1,2.520953938E-3
2.954195942E1,8.789900020E-3
2.955189342E1,1.278502839E-2
2.956182742E1,-1.747769304E-4
2.957176142E1,8.964457680E-3
2.958169642E1,5.206781086E-3
2.959163042E1,6.160790864E-3
2.960156442E1,1.238385458E-3
2.961149842E1,-8.612016756E-3
2.962143242E1,1.182014644E-3
2.963136642E1,5.054369755E-3
2.964130042E1,6.942965593E-3
2.965123442E1,-2.333221771E-3
2.966116842E1,5.283598881E-3
2.967110342E1,7.970705107E-3
2.968103742E1,-7.246161997E-4
2.969097142E1,-9.846528433E-4
2.970090542E1,-5.169961900E-3
2.971083942E1,-5.877895262E-3
2.972077342E1,2.358072437E-3
2.973070742E1,6.128101274E-3
2.974064142E1,6.695116740E-3
2.975057542E1,6.931216344E-3
2.976050942E1,1.169735491E-3
2.977044442E1,1.748628113E-3
2.978037842E1,1.012427118E-2
2.979031242E1,4.396356996E-3
2.980024642E1,1.596035885E-2
2.981018042E1,4.826584160E-3
2.982011442E1,-5.091207214E-3
2.983004842E1,2.847411297E-4
2.983998242E1,4.156456701E-4
2.984991642E1,-1.225284040E-3
2.985985042E1,-2.205935195E-3
2.986978542E1,6.129617896E-3
2.987971942E1,-6.347518042E-4
2.988965342E1,1.115142597E-2
2.989958742E1,8.313827030E-3
2.990952142E1,-5.811036006E-4
2.991945542E1,-2.649282049E-3
2.992938942E1,9.693769924E-4
2.993932342E1,6.715600267E-3
2.994925742E1,-1.496594846E-3
2.995919142E1,3.345922977E-3
2.996912642E1,5.705438945E-3
2.997906042E1,-6.597121060E-4
2.998899442E1,2.220790777E-3
2.999892842E1,1.296583526E-3
3.000886242E1,5.056105647E-3
3.001879642E1,4.648225810E-3
3.002873042E1,-4.144268911E-3
3.003866442E1,6.174422186E-3
3.004859842E1,6.007630359E-3
3.005853342E1,-4.727674853E-3
3.006846742E1,6.484141890E-3
3.007840142E1,8.760444671E-3
3.008833542E1,-1.462352090E-4
3.009826942E1,-1.254520118E-3
3.010820342E1,1.593932714E-3
3.011813742E1,-2.664137632E-5
3.012807142E1,-2.011222914E-3
3.013800542E1,-1.622035895E-3
3.014793942E1,5.781891290E-3
3.015787442E1,2.539482303E-3
3.016780842E1,2.906522993E-3
3.017774242E1,3.149255533E-3
3.018767642E1,3.155724015E-3
3.019761042E1,1.063151713E-3
3.020754442E1,2.913685832E-3
3.021747842E1,1.924318671E-3
3.022741279E1,3.718244433E-3
3.023734679E1,1.693134382E-4
3.024728079E1,2.339068986E-3
3.025721579E1,3.736772798E-3
3.026714979E1,4.357783645E-3
3.027708379E1,5.389817208E-3
3.028701779E1,1.015363516E-2
3.029695179E1,1.070917547E-2
3.030688579E1,3.268337734E-3
3.031681979E1,-4.990470652E-3
3.032675379E1,-2.374481186E-3
3.033668779E1,-2.246134803E-3
3.034662279E1,2.238314152E-3
3.035655679E1,-4.460420553E-3
3.036649079E1,-3.641591091E-3
3.037642479E1,2.079909425E-3
3.038635879E1,9.376375750E-3
3.039629279E1,3.509060293E-3
3.040622679E1,1.290189961E-2
3.041616079E1,3.769882657E-3
3.042609479E1,3.455320727E-3
3.043602879E1,1.248853801E-2
3.044596379E1,5.998000726E-3
3.045589779E1,1.236375477E-3
3.046583179E1,-1.490016729E-3
3.047576579E1,4.675397091E-4
3.048569979E1,7.070928253E-4
3.049563379E1,8.942475803E-3
3.050556779E1,6.725376081E-3
3.051550179E1,1.082904339E-3
3.052543579E1,3.153001405E-3
3.053537079E1,1.216622852E-3
3.054530479E1,-3.057052251E-3
3.055523879E1,-4.623576142E-3
3.056517279E1,-2.499648146E-3
3.057510679E1,8.098009955E-3
3.058504079E1,8.609330691E-3
3.059497479E1,4.750862718E-5
3.060490879E1,-8.834594674E-4
3.061484279E1,-9.207902849E-4
3.062477679E1,-7.753773406E-4
3.063471179E1,3.181269038E-3
3.064464579E1,2.697832212E-3
3.065457979E1,6.885827333E-4
3.066451379E1,1.906630844E-3
3.067444779E1,3.699624706E-3
3.068438179E1,3.985864185E-3
3.069431579E1,4.848456401E-3
3.070424979E1,6.448729690E-3
3.071418379E1,1.947634444E-3
3.072411779E1,4.230277799E-4
3.073405279E1,-2.281510457E-4
3.074398679E1,-7.456844486E-4
3.075392079E1,4.431824014E-3
3.076385479E1,8.033855036E-3
3.077378879E1,-2.161934897E-3
3.078372279E1,3.287889361E-3
3.079365679E1,4.361127522E-3
3.080359079E1,-4.612356797E-4
3.081352479E1,3.719560057E-4
3.082345979E1,6.156734359E-3
3.083339379E1,3.733465467E-3
3.084332779E1,4.350803532E-3
3.085326179E1,6.534921303E-3
3.086319579E1,2.573597152E-3
3.087312979E1,-4.687731061E-3
3.088306379E1,-1.192247272E-3
3.089299779E1,4.511291329E-3
3.090293179E1,-3.794349600E-3
3.091286579E1,6.880985107E-3
3.092280079E1,1.221830528E-2
3.093273479E1,-8.545175772E-3
3.094266879E1,-6.288863160E-3
3.095260279E1,1.697757337E-3
3.096253679E1,-5.057402998E-3
3.097247079E1,7.554657441E-3
3.098240479E1,3.164714109E-3
3.099233879E1,3.851926401E-3
3.100227279E1,-3.571442775E-3
3.101220779E1,2.968265936E-3
3.102214179E1,5.204296019E-3
3.103207579E1,6.812316868E-3
3.104200979E1,-5.695443861E-3
3.105194379E1,-5.111380108E-3
3.106187779E1,1.057825265E-2
3.107181179E1,3.438893706E-4
3.108174579E1,-3.414043039E-3
3.109167979E1,1.097193472E-3
3.110161379E1,6.283089034E-3
3.111154879E1,5.283470973E-3
3.112148279E1,9.398741350E-3
3.113141679E1,4.699516855E-3
3.114135079E1,8.923892621E-3
3.115128479E1,5.809866562E-3
3.116121879E1,1.396223735E-3
3.117115279E1,1.245420389E-3
3.118108679E1,-2.199978344E-3
3.119102079E1,4.880195819E-3
3.120095579E1,-1.994960345E-3
3.121088979E1,7.748839818E-4
3.122082379E1,4.871552903E-3
3.123075767E1,5.882372037E-3
3.124069167E1,-8.082496561E-4
3.125062567E1,2.744500302E-3
3.126055967E1,4.161171019E-3
3.127049367E1,-2.261483744E-3
3.128042767E1,-5.372074563E-3
3.129036267E1,7.337524742E-4
3.130029667E1,4.745655041E-3
3.131023067E1,2.118665501E-3
3.132016467E1,1.152429560E-2
3.133009867E1,7.655850817E-3
3.134003267E1,3.329020869E-3
3.134996667E1,5.714995489E-3
3.135990067E1,9.306026436E-4
3.136983467E1,4.179078117E-3
3.137976967E1,5.347753800E-3
3.138970367E1,-4.514653478E-3
3.139963767E1,1.865097340E-3
3.140957167E1,2.272757906E-3
3.141950567E1,3.941297438E-3
3.142943967E1,4.317620583E-3
3.143937367E1,6.218093578E-3
3.144930767E1,1.606796589E-3
3.145924167E1,2.400464751E-3
3.146917567E1,-3.909430113E-3
3.147911067E1,-2.992970422E-3
3.148904467E1,-5.732847769E-3
3.149897867E1,5.120004751E-3
3.150891267E1,2.506865803E-3
3.151884667E1,8.310994785E-3
3.152878067E1,2.291158363E-3
3.153871467E1,-6.618499942E-4
3.154864867E1,2.687946763E-3
3.155858267E1,-3.692863863E-3
3.156851767E1,2.792337835E-3
3.157845167E1,-6.808351725E-5
3.158838567E1,-6.991625391E-4
3.159831967E1,6.473598629E-3
3.160825367E1,-4.728551935E-3
3.161818767E1,-5.483226478E-3
3.162812167E1,-1.126904637E-3
3.163805567E1,4.796196911E-3
3.164798967E1,5.590468068E-3
3.165792367E1,5.206908993E-3
3.166785867E1,-7.071476430E-5
3.167779267E1,6.763529163E-3
3.168772667E1,8.967618831E-4
3.169766067E1,-4.749638457E-3
3.170759467E1,3.749746308E-3
3.171752867E1,-2.043510508E-3
3.172746267E1,3.206649609E-3
3.173739667E1,9.316076338E-3
3.174733067E1,1.646559482E-2
3.175726567E1,3.304462563E-3
3.176719967E1,-2.229196150E-3
3.177713367E1,-3.833617307E-3
3.178706767E1,-1.083794212E-2
3.179700167E1,-2.071832959E-3
3.180693567E1,7.821126021E-3
3.181686967E1,6.208463944E-3
3.182680367E1,1.418899968E-3
3.183673767E1,7.682126742E-3
3.184667267E1,-3.630444836E-3
3.185660667E1,3.306856267E-3
3.186654067E1,-2.419906743E-3
3.187647467E1,1.815085374E-3
3.188640867E1,4.283140283E-3
3.189634267E1,-1.528498717E-3
3.190627667E1,-5.359356869E-3
3.191621067E1,3.404139318E-3
3.192614467E1,2.779638413E-3
3.193607867E1,5.599421617E-3
3.194601367E1,-4.135826994E-3
3.195594767E1,-8.154965490E-3
3.196588167E1,5.230151676E-4
3.197581567E1,8.695577122E-3
3.198574967E1,9.572440200E-4
3.199568367E1,-3.562818132E-3
3.200561767E1,4.232342597E-3
3.201555167E1,1.478121299E-3
3.202548567E1,2.068452537E-5
3.203542067E1,-2.585127130E-3
3.204535467E1,2.707608026E-3
3.205528867E1,-3.783331253E-3
3.206522267E1,8.237886317E-3
3.207515667E1,-3.105456233E-3
3.208509067E1,-2.612042595E-3
3.209502467E1,3.570492603E-3
3.210495867E1,5.041451063E-3
3.211489267E1,5.850924980E-3
3.212482767E1,8.985726926E-3
3.213476167E1,1.098713748E-2
3.214469567E1,3.539319634E-3
3.215462967E1,6.113081239E-4
3.216456367E1,5.612358581E-3
3.217449767E1,9.350063279E-5
3.218443167E1,-4.036095422E-3
3.219436567E1,6.073703896E-3
3.220429967E1,1.081055157E-2
3.221423467E1,-1.352351345E-4
3.222416867E1,3.657506481E-3
3.223410292E1,7.351174336E-3
3.224403692E1,7.178188115E-4
3.225397092E1,-4.730762914E-3
3.226390492E1,-3.649046291E-3
3.227383892E1,1.609446108E-3
3.228377292E1,-7.351411879E-4
3.229370692E1,1.101048980E-3
3.230364092E1,8.544718958E-3
3.231357592E1,-2.730832435E-3
3.232350992E1,-5.197096635E-3
3.233344392E1,6.522569060E-4
3.234337792E1,1.019370686E-3
3.235331192E1,4.983289540E-4
3.236324592E1,7.552208919E-3
3.237317992E1,1.060959008E-3
3.238311392E1,-1.799169984E-3
3.239304792E1,-1.546058636E-3
3.240298292E1,8.608490154E-3
3.241291692E1,-5.190500244E-3
3.242285092E1,-9.786466565E-3
3.243278492E1,-2.245769352E-3
3.244271892E1,1.205714140E-3
3.245265292E1,-2.509935591E-3
3.246258692E1,-1.295103449E-3
3.247252092E1,3.310547322E-3
3.248245492E1,4.618660826E-3
3.249238992E1,9.991393201E-3
3.250232392E1,7.428375855E-3
3.251225792E1,-2.687179316E-3
3.252219192E1,-1.727961861E-3
3.253212592E1,5.419784188E-3
3.254205992E1,1.075346813E-2
3.255199392E1,8.030602522E-4
3.256192792E1,9.434665181E-4
3.257186192E1,2.604623940E-3
3.258179692E1,1.561334487E-3
3.259173092E1,1.331392732E-3
3.260166492E1,-4.532505758E-4
3.261159892E1,1.952951755E-3
3.262153292E1,3.076658696E-3
3.263146692E1,-4.366938192E-3
3.264140092E1,-5.641740840E-3
3.265133492E1,3.198024966E-3
3.266126892E1,1.888285205E-3
3.267120392E1,6.283673756E-3
3.268113792E1,5.195013564E-3
3.269107192E1,-3.853735384E-3
3.270100592E1,1.316317879E-3
3.271093992E1,1.378334910E-3
3.272087392E1,3.299528975E-3
3.273080792E1,4.025351163E-3
3.274074192E1,-3.419744074E-3
3.275067592E1,7.036137320E-3
3.276061092E1,3.455941994E-3
3.277054492E1,4.236490466E-4
3.278047892E1,5.236473978E-3
3.279041292E1,3.035381008E-3
3.280034692E1,1.438835319E-3
3.281028092E1,8.606059905E-3
3.282021492E1,2.570235003E-3
3.283014892E1,6.423897296E-3
3.284008292E1,5.668071583E-3
3.285001792E1,6.028552428E-3
3.285995192E1,8.265368231E-3
3.286988592E1,1.828259882E-3
3.287981992E1,3.053744920E-3
3.288975392E1,-8.943499066E-4
3.289968792E1,3.374757059E-4
3.290962192E1,4.840489570E-3
3.291955592E1,3.859345056E-4
3.292948992E1,8.278195560E-3
3.293942492E1,-2.471618056E-3
3.294935892E1,-4.122780394E-3
3.295929292E1,-3.110408094E-3
3.296922692E1,-8.193155117E-3
3.297916092E1,6.281389687E-3
3.298909492E1,2.034337688E-3
3.299902892E1,6.657146383E-3
3.300896292E1,-1.437099427E-3
3.301889692E1,3.595160544E-3
3.302883192E1,-2.141670641E-3
3.303876592E1,1.039123312E-3
3.304869992E1,2.130579203E-3
3.305863392E1,-4.526658542E-4
3.306856792E1,3.752633370E-4
3.307850192E1,1.141988626E-2
3.308843592E1,4.587323405E-3
3.309836992E1,2.404466439E-3
3.310830392E1,3.041209951E-3
3.311823892E1,6.634945236E-4
3.312817292E1,6.508279927E-3
3.313810692E1,-1.265885644E-3
3.314804092E1,-3.192323931E-3
3.315797492E1,8.891933933E-3
3.316790892E1,7.168320939E-4
3.317784292E1,-4.512040503E-3
3.318777692E1,5.961181540E-3
3.319771092E1,2.781008855E-3
3.320764492E1,-1.062183268E-4
3.321757992E1,6.514035780E-3
3.322751354E1,-2.340731788E-3
3.323744754E1,-4.781469237E-3
3.324738154E1,3.803595509E-3
3.325731554E1,2.679998204E-3
3.326724954E1,1.463009901E-3
3.327718354E1,8.086315524E-3
3.328711754E1,2.716634665E-3
3.329705154E1,4.562162105E-3
3.330698654E1,-5.443026870E-4
3.331692054E1,2.789103594E-3
3.332685454E1,1.136826631E-3
3.333678854E1,-4.004703183E-3
3.334672254E1,3.816824835E-3
3.335665654E1,1.038019650E-2
3.336659054E1,1.096718386E-3
3.337652454E1,9.881063551E-4
3.338645954E1,5.082180575E-3
3.339639354E1,9.016095903E-3
3.340632754E1,-3.859418146E-3
3.341626154E1,-9.991795197E-3
3.342619554E1,4.071909618E-3
3.343612954E1,6.067509502E-3
3.344606354E1,8.054101020E-3
3.345599754E1,7.676900793E-3
3.346593154E1,-7.112406939E-4
3.347586554E1,1.910870075E-3
3.348580054E1,3.409931716E-3
3.349573454E1,6.713846102E-3
3.350566854E1,4.770542253E-3
3.351560254E1,-9.826976806E-4
3.352553654E1,-1.503648050E-3
3.353547054E1,4.429265857E-3
3.354540454E1,3.300022334E-4
3.355533854E1,-8.454160206E-4
3.356527354E1,2.663772181E-3
3.357520754E1,2.723870594E-3
3.358514154E1,1.293747626E-2
3.359507554E1,6.623141170E-3
3.360500954E1,2.238131426E-3
3.361494354E1,-6.275049113E-3
3.362487754E1,3.890554570E-3
3.363481154E1,6.122455057E-3
3.364474554E1,6.598966587E-3
3.365467954E1,2.453528233E-3
3.366461454E1,4.458593298E-3
3.367454854E1,-1.379687078E-3
3.368448254E1,-1.093758233E-3
3.369441654E1,1.113894582E-4
3.370435054E1,5.109918304E-4
3.371428454E1,1.183748709E-2
3.372421854E1,6.926776115E-3
3.373415254E1,2.177283838E-3
3.374408654E1,5.875556376E-3
3.375402154E1,1.196875708E-2
3.376395554E1,8.744364828E-3
3.377388954E1,-6.770125553E-3
3.378382354E1,-5.760950949E-3
3.379375754E1,9.235202037E-3
3.380369154E1,2.912973203E-3
3.381362554E1,3.566363007E-3
3.382355954E1,3.225835785E-3
3.383349454E1,1.496686209E-3
3.384342854E1,-4.096011110E-3
3.385336254E1,3.055974171E-3
3.386329654E1,5.767803155E-3
3.387323054E1,1.841160301E-3
3.388316454E1,2.379816771E-3
3.389309854E1,5.543105621E-3
3.390303254E1,7.859315649E-3
3.391296654E1,-2.706913669E-3
3.392290154E1,8.030054346E-4
3.393283554E1,3.737448882E-3
3.394276954E1,1.611602269E-3
3.395270354E1,6.105498131E-3
3.396263754E1,1.268937159E-3
3.397257154E1,-3.335471079E-4
3.398250554E1,1.050342657E-2
3.399243954E1,9.692216758E-3
3.400237354E1,-3.875991348E-3
3.401230854E1,-4.456857406E-4
3.402224254E1,1.559086964E-3
3.403217654E1,9.438392781E-3
3.404211054E1,2.970915455E-3
3.405204454E1,-5.248643495E-3
3.406197854E1,2.378830053E-3
3.407191254E1,7.108240798E-3
3.408184654E1,-2.517409064E-4
3.409178054E1,3.499777839E-3
3.410171554E1,5.927980319E-4
3.411164954E1,2.468931992E-3
3.412158354E1,1.289219689E-3
3.413151754E1,2.185214125E-3
3.414145154E1,-3.554741666E-4
3.415138554E1,1.082606496E-2
3.416131954E1,1.846495885E-3
3.417125354E1,-8.281301893E-4
3.418118754E1,3.975850828E-3
3.419112254E1,6.889755931E-3
3.420105654E1,4.389248975E-4
3.421099054E1,1.054673251E-2
3.422092454E1,5.342747122E-3
3.423085804E1,1.131207822E-2
3.424079204E1,3.606087528E-3
3.425072604E1,3.760052025E-3
3.426066004E1,7.766326647E-3
3.427059404E1,1.887243669E-3
3.428052904E1,1.096168382E-2
3.429046304E1,8.011233620E-4
3.430039704E1,1.180989554E-2
3.431033104E1,6.415053383E-3
3.432026504E1,1.284010185E-2
3.433019904E1,9.414382651E-4
3.434013304E1,-1.730684470E-3
3.435006704E1,6.802961323E-3
3.436000104E1,4.163089637E-3
3.436993604E1,2.480644695E-3
3.437987004E1,3.026610184E-3
3.438980404E1,1.325032057E-2
3.439973804E1,8.903336003E-3
3.440967204E1,-3.410278894E-3
3.441960604E1,-6.570991315E-4
3.442954004E1,8.777876683E-3
3.443947404E1,5.136961676E-3
3.444940904E1,1.961832214E-3
3.445934304E1,1.225570919E-2
3.446927704E1,5.091371667E-3
3.447921104E1,1.378243547E-3
3.448914504E1,7.139285859E-3
3.449907904E1,9.589269217E-3
3.450901304E1,1.218218045E-2
3.451894704E1,2.627647351E-3
3.452888104E1,1.352932412E-2
3.453881604E1,3.930772450E-3
3.454875004E1,1.542550307E-3
3.455868404E1,2.236011811E-4
3.456861804E1,7.430623379E-3
3.457855204E1,3.538387734E-3
3.458848604E1,6.095704045E-3
3.459842004E1,-4.205427133E-4
3.460835404E1,5.486259721E-3
3.461828804E1,4.354860038E-3
3.462822304E1,4.851434827E-3
3.463815704E1,9.402359314E-3
3.464809104E1,2.852637246E-3
3.465802504E1,1.998980306E-3
3.466795904E1,3.854977917E-3
3.467789304E1,5.166727658E-3
3.468782704E1,3.583721928E-3
3.469776104E1,6.107343659E-3
3.470769504E1,2.088040709E-3
3.471763004E1,1.218870375E-3
3.472756404E1,-1.264021844E-3
3.473749804E1,8.438518904E-3
3.474743204E1,2.760580145E-3
3.475736604E1,1.972539928E-3
3.476730004E1,-1.343891155E-3
3.477723404E1,2.521483842E-3
3.478716804E1,-2.478159629E-3
3.479710304E1,7.519592419E-3
3.480703704E1,6.460369304E-3
3.481697104E1,6.978907697E-3
3.482690504E1,1.356645394E-3
3.483683904E1,1.304062480E-2
3.484677304E1,1.211689264E-3
3.485670704E1,5.399191026E-3
3.486664104E1,7.468063831E-3
3.487657504E1,1.244885003E-2
3.488651004E1,5.932913907E-3
3.489644404E1,-4.962385744E-3
3.490637804E1,4.925731011E-3
3.491631204E1,6.344777159E-4
3.492624604E1,8.143837508E-3
3.493618004E1,5.420094822E-3
3.494611404E1,5.954840966E-4
3.495604804E1,8.876438811E-4
3.496598304E1,-3.072145376E-3
3.497591704E1,2.164456509E-3
3.498585104E1,7.064825222E-3
3.499578504E1,2.538093589E-3
3.500571904E1,4.512405954E-3
3.501565304E1,3.079746757E-3
3.502558704E1,9.424359463E-3
3.503552104E1,4.562216923E-3
3.504545504E1,3.188322242E-3
3.505539004E1,9.184696712E-3
3.506532404E1,3.499247935E-3
3.507525804E1,6.225128509E-3
3.508519204E1,1.688822061E-3
3.509512604E1,1.105724925E-2
3.510506004E1,5.561780166E-3
3.511499404E1,4.494498856E-4
3.512492804E1,7.271871474E-3
3.513486204E1,1.441174205E-3
3.514479704E1,-2.917175889E-3
3.515473104E1,-2.129172217E-3
3.516466504E1,1.539718062E-3
3.517459904E1,1.384617012E-2
3.518453304E1,8.177002184E-3
3.519446704E1,6.032280028E-3
3.520440104E1,9.509801902E-3
3.521433504E1,1.510883979E-3
3.522426904E1,7.371182777E-3
3.523420396E1,4.406224173E-3
3.524413796E1,1.093507899E-2
3.525407196E1,1.215025831E-2
3.526400596E1,5.109333582E-3
3.527393996E1,5.611773860E-3
3.528387396E1,-2.230676226E-3
3.529380796E1,3.423800580E-3
3.530374196E1,1.326605324E-3
3.531367696E1,2.671757285E-3
3.532361096E1,8.168907445E-3
3.533354496E1,9.829918686E-3
3.534347896E1,6.114908494E-3
3.535341296E1,-7.479155269E-3
3.536334696E1,-2.248437144E-4
3.537328096E1,1.008354167E-2
3.538321496E1,7.534849998E-3
3.539314896E1,3.367137406E-3
3.540308396E1,-6.979565509E-4
3.541301796E1,3.771856092E-3
3.542295196E1,1.070040464E-3
3.543288596E1,6.143194400E-3
3.544281996E1,1.675006187E-2
3.545275396E1,9.454381261E-3
3.546268796E1,5.176795833E-3
3.547262196E1,3.123235423E-3
3.548255696E1,8.453721665E-3
3.549249096E1,5.269328021E-3
3.550242496E1,1.818520613E-3
3.551235896E1,9.155442361E-3
3.552229296E1,9.699745048E-3
3.553222696E1,8.578212541E-3
3.554216096E1,5.449020267E-3
3.555209496E1,-1.906740479E-4
3.556202896E1,7.605765760E-4
3.557196396E1,7.525549270E-4
3.558189796E1,4.238226358E-3
3.559183196E1,-5.860371888E-4
3.560176596E1,6.472849455E-3
3.561169996E1,6.489806380E-3
3.562163396E1,7.960929293E-3
3.563156796E1,3.560789879E-3
3.564150196E1,1.119754588E-2
3.565143696E1,5.598124266E-3
3.566137096E1,-2.411062829E-4
3.567130496E1,9.354887232E-3
3.568123896E1,2.874125764E-3
3.569117296E1,3.137597647E-3
3.570110696E1,1.325825086E-2
3.571104096E1,6.563006211E-3
3.572097496E1,6.488107033E-3
3.573090896E1,7.038476206E-3
3.574084396E1,2.170797084E-3
3.575077796E1,5.466032010E-3
3.576071196E1,1.953496277E-2
3.577064596E1,7.978635393E-3
3.578057996E1,3.917177673E-3
3.579051396E1,6.494849604E-3
3.580044796E1,4.502666686E-3
3.581038196E1,1.343171217E-2
3.582031696E1,5.765847992E-3
3.583025096E1,-2.136481237E-3
3.584018496E1,9.616604950E-3
3.585011896E1,1.302348515E-2
3.586005296E1,3.473940454E-3
3.586998696E1,1.462845448E-2
3.587992096E1,1.384958709E-2
3.588985496E1,1.513314229E-3
3.589978896E1,1.861479376E-3
3.590972396E1,5.113243908E-3
3.591965796E1,1.092974341E-2
3.592959196E1,9.236609023E-3
3.593952596E1,6.891656276E-3
3.594945996E1,5.517980866E-3
3.595939396E1,1.173388174E-2
3.596932796E1,-2.337077279E-3
3.597926196E1,-8.371385559E-4
3.598919696E1,1.069154246E-2
3.599913096E1,5.897739250E-3
3.600906496E1,-4.087441284E-3
3.601899896E1,1.138546078E-2
3.602893296E1,8.497466147E-4
3.603886696E1,-2.198004909E-4
3.604880096E1,2.155777048E-3
3.605873496E1,6.998313144E-3
3.606866896E1,8.774276990E-3
3.607860396E1,9.628811013E-3
3.608853796E1,1.825354546E-3
3.609847196E1,5.321624056E-3
3.610840596E1,-3.606982883E-3
3.611833996E1,3.439076431E-3
3.612827396E1,2.418810390E-3
3.613820796E1,1.156268623E-3
3.614814196E1,5.936001968E-3
3.615807596E1,1.239540283E-2
3.616801096E1,1.092718525E-2
3.617794496E1,7.828946672E-3
3.618787896E1,2.105706610E-2
3.619781296E1,7.146540061E-3
3.620774696E1,-5.570788532E-3
3.621768096E1,5.897775795E-3
3.622761496E1,1.077161277E-2
3.623754892E1,1.028839521E-2
3.624748392E1,7.058868371E-3
3.625741792E1,-1.645077579E-4
3.626735192E1,6.425413918E-3
3.627728592E1,3.531572074E-3
3.628721992E1,3.575883005E-3
3.629715392E1,8.164704759E-3
3.630708792E1,1.071487650E-2
3.631702192E1,-9.738720395E-4
3.632695692E1,3.888160866E-3
3.633689092E1,7.687151693E-3
3.634682492E1,2.315826304E-3
3.635675892E1,5.792288370E-3
3.636669292E1,1.166442778E-2
3.637662692E1,2.866908107E-3
3.638656092E1,5.499141868E-3
3.639649492E1,2.495226189E-3
3.640642892E1,5.323012769E-3
3.641636392E1,-5.281113815E-3
3.642629792E1,4.635215756E-3
3.643623192E1,4.013656732E-3
3.644616592E1,-1.650248710E-3
3.645609992E1,4.098021090E-3
3.646603392E1,6.738806404E-3
3.647596792E1,4.475531951E-3
3.648590192E1,7.024260163E-3
3.649583692E1,-6.123569682E-3
3.650577092E1,6.251148619E-3
3.651570492E1,6.356782224E-3
3.652563892E1,1.060768973E-2
3.653557292E1,6.237279754E-3
3.654550692E1,5.556097403E-3
3.655544092E1,3.877983056E-3
3.656537492E1,-8.976937830E-4
3.657530892E1,4.088446274E-3
3.658524392E1,-2.634170651E-4
3.659517792E1,7.617515009E-3
3.660511192E1,1.577834599E-4
3.661504592E1,1.972010024E-3
3.662497992E1,-7.022140548E-5
3.663491392E1,-1.297661606E-3
3.664484792E1,-2.113403007E-4
3.665478192E1,1.868916303E-4
3.666471692E1,1.255287565E-3
3.667465092E1,-4.993796255E-3
3.668458492E1,-9.032120928E-4
3.669451892E1,3.472825829E-3
3.670445292E1,3.289168440E-3
3.671438692E1,5.399720930E-3
3.672432092E1,2.226108089E-3
3.673425492E1,1.077861115E-3
3.674418992E1,6.937355921E-4
3.675412392E1,-1.107245201E-2
3.676405792E1,-4.309818204E-3
3.677399192E1,2.722262610E-3
3.678392592E1,4.996993951E-4
3.679385992E1,1.101469249E-4
3.680379392E1,-6.854581274E-4
3.681372792E1,2.074318025E-3
3.682366192E1,2.171527985E-3
3.683359692E1,-3.512458988E-3
3.684353092E1,1.717893686E-3
3.685346492E1,-2.426119410E-3
3.686339892E1,1.675410010E-3
3.687333292E1,2.880685609E-3
3.688326692E1,-5.944425613E-4
3.689320092E1,6.536273472E-4
3.690313492E1,-5.053163767E-3
3.691306992E1,2.829686925E-3
3.692300392E1,1.086728783E-2
3.693293792E1,1.030050991E-2
3.694287192E1,7.044469602E-3
3.695280592E1,-4.205427133E-4
3.696273992E1,8.717705179E-3
3.697267392E1,6.670028530E-3
3.698260792E1,5.415599775E-3
3.699254292E1,3.420237433E-3
3.700247692E1,1.654031128E-3
3.701241092E1,-5.635802262E-4
3.702234492E1,1.455189250E-3
3.703227892E1,1.343339324E-2
3.704221292E1,7.621644605E-3
3.705214692E1,1.046724692E-3
3.706208092E1,-1.009503510E-3
3.707201492E1,5.867406819E-3
3.708194992E1,8.825842123E-3
3.709188392E1,6.327527873E-3
3.710181792E1,4.293062277E-3
3.711175192E1,4.244219754E-3
3.712168592E1,1.151938029E-3
3.713161992E1,6.908850744E-3
3.714155392E1,4.986578599E-3
3.715148792E1,8.247150499E-3
3.716142292E1,7.055177316E-3
3.717135692E1,7.948832866E-3
3.718129092E1,-2.782525476E-3
3.719122492E1,-9.474316612E-4
3.720115892E1,1.901276987E-3
3.721109292E1,9.345184509E-3
3.722102692E1,8.738974426E-3
3.723096167E1,7.646148093E-3
3.724089667E1,-5.592496321E-4
3.725083067E1,7.574720699E-3
3.726076467E1,1.554928131E-2
3.727069867E1,-5.874533113E-3
3.728063267E1,2.199941799E-3
3.729056667E1,8.292521238E-3
3.730050067E1,1.028364435E-2
3.731043467E1,7.342092879E-4
3.732036967E1,-1.029055137E-3
3.733030367E1,5.658423677E-3
3.734023767E1,-2.631886583E-3
3.735017167E1,-4.047369584E-5
3.736010567E1,9.116028473E-3
3.737003967E1,-1.903232150E-3
3.737997367E1,1.409379970E-3
3.738990767E1,-6.688118353E-4
3.739984167E1,1.216642952E-2
3.740977667E1,9.403930753E-3
3.741971067E1,5.788743496E-4
3.742964467E1,1.118026005E-2
3.743957867E1,-1.175016258E-3
3.744951267E1,3.159561250E-3
3.745944667E1,7.889702898E-3
3.746938067E1,-1.503830776E-5
3.747931467E1,2.800286394E-3
3.748924967E1,-1.687963251E-3
3.749918367E1,6.273495946E-3
3.750911767E1,4.766120296E-3
3.751905167E1,7.097606175E-4
3.752898567E1,2.540487293E-3
3.753891967E1,2.721221074E-3
3.754885367E1,5.968764648E-3
3.755878767E1,6.690055244E-3
3.756872267E1,7.110031508E-3
3.757865667E1,2.612773497E-3
3.758859067E1,3.728056792E-3
3.759852467E1,5.757844616E-3
3.760845867E1,1.439876854E-3
3.761839267E1,7.856410313E-3
3.762832667E1,5.733176675E-3
3.763826067E1,4.969329312E-3
3.764819567E1,6.964454111E-3
3.765812967E1,1.737244315E-3
3.766806367E1,4.929495156E-3
3.767799767E1,6.819991339E-3
3.768793167E1,8.389365748E-3
3.769786567E1,7.538742051E-3
3.770779967E1,-7.015379705E-4
3.771773367E1,6.751396190E-3
3.772766767E1,1.979995128E-3
3.773760267E1,4.852659088E-3
3.774753667E1,3.525304589E-3
3.775747067E1,-4.077281747E-3
3.776740467E1,1.745686233E-3
3.777733867E1,4.409896955E-3
3.778727267E1,5.730052069E-3
3.779720667E1,1.355201863E-3
3.780714067E1,-2.327849641E-3
3.781707567E1,2.775198184E-3
3.782700967E1,5.964214783E-3
3.783694367E1,-1.652203873E-4
3.784687767E1,4.275557175E-3
3.785681167E1,1.078045668E-2
3.786674567E1,3.020086884E-4
3.787667967E1,1.092294602E-2
3.788661367E1,9.817182720E-3
3.789654867E1,-6.019891240E-4
3.790648267E1,4.071032535E-3
3.791641667E1,1.006176079E-2
3.792635067E1,7.080667522E-3
3.793628467E1,5.270040650E-3
3.794621867E1,7.822569553E-3
3.795615267E1,3.774395976E-3
3.796608667E1,-2.368487790E-3
3.797602167E1,8.306883462E-3
3.798595567E1,1.616223397E-2
3.799588967E1,1.042492770E-2
3.800582367E1,9.674382750E-3
3.801575767E1,9.096495118E-3
3.802569167E1,4.175825603E-4
3.803562567E1,-3.715174645E-4
3.804555967E1,1.417980859E-2
3.805549467E1,5.117410049E-3
3.806542867E1,3.632089365E-3
3.807536267E1,1.341184990E-2
3.808529667E1,3.143718950E-3
3.809523067E1,6.095813680E-3
3.810516467E1,1.108522452E-3
3.811509867E1,1.190430980E-2
3.812503267E1,7.351503242E-3
3.813496767E1,4.330813363E-3
3.814490167E1,1.373364776E-4
3.815483567E1,8.057097718E-3
3.816476967E1,4.206541758E-3
3.817470367E1,6.934998762E-3
3.818463767E1,7.120044865E-3
3.819457167E1,1.346138678E-3
3.820450567E1,-4.429265857E-4
3.821443967E1,7.798705604E-3
3.822437467E1,1.609373018E-3
3.823430842E1,-2.726812474E-4
3.824424242E1,7.821217384E-3
3.825417642E1,-1.477792393E-3
3.826411042E1,7.716168500E-3
3.827404442E1,7.806654163E-3
3.828397842E1,5.466507096E-3
3.829391342E1,1.277379077E-3
3.830384742E1,-2.412908357E-3
3.831378142E1,3.011663239E-3
3.832371542E1,3.748046961E-3
3.833364942E1,4.561559111E-3
3.834358342E1,8.754451275E-3
3.835351742E1,5.182259325E-3
3.836345142E1,8.085091263E-3
3.837338642E1,1.028572742E-2
3.838332042E1,3.363610804E-3
3.839325442E1,4.048922751E-3
3.840318842E1,4.729301110E-4
3.841312242E1,1.332774136E-2
3.842305642E1,1.729087450E-2
3.843299042E1,5.327306818E-3
3.844292442E1,2.928614505E-3
3.845285842E1,9.114548396E-3
3.846279342E1,7.522223666E-3
3.847272742E1,8.645364158E-3
3.848266142E1,6.070232112E-3
3.849259542E1,2.761036959E-3
3.850252942E1,1.583572179E-3
3.851246342E1,2.919514775E-3
3.852239742E1,4.221104980E-3
3.853233142E1,5.929679666E-3
3.854226642E1,4.480830990E-3
3.855220042E1,6.016017459E-3
3.856213442E1,4.439772572E-3
3.857206842E1,4.956173077E-3
3.858200242E1,1.135907521E-2
3.859193642E1,4.108034447E-3
3.860187042E1,-1.814080384E-3
3.861180442E1,5.907021705E-3
3.862173942E1,1.057898356E-2
3.863167342E1,6.690292787E-3
3.864160742E1,-8.044855110E-4
3.865154142E1,3.604625724E-4
3.866147542E1,7.344303858E-3
3.867140942E1,2.962528355E-4
3.868134342E1,9.809563067E-3
3.869127742E1,6.649581548E-3
3.870121242E1,-3.252806067E-3
3.871114642E1,-3.961104881E-3
3.872108042E1,-3.971209601E-3
3.873101442E1,-3.005450573E-3
3.874094842E1,9.830010049E-3
3.875088242E1,5.107506327E-3
3.876081642E1,5.811054278E-3
3.877075042E1,4.943418838E-3
3.878068542E1,4.059338104E-3
3.879061942E1,3.385428227E-3
3.880055342E1,4.032970816E-3
3.881048742E1,6.183028556E-3
3.882042142E1,-6.376205944E-4
3.883035542E1,1.696459986E-3
3.884028942E1,4.311444461E-3
3.885022342E1,1.314490624E-3
3.886015842E1,3.072035741E-3
3.887009242E1,-1.648056004E-3
3.888002642E1,6.988354605E-3
3.888996042E1,8.390498646E-3
3.889989442E1,3.702347316E-3
3.890982842E1,4.132172484E-3
3.891976242E1,7.355285659E-3
3.892969642E1,1.630925490E-2
3.893963142E1,1.203095684E-2
3.894956542E1,-3.219805844E-4
3.895949942E1,6.959118526E-3
3.896943342E1,2.809258215E-3
3.897936742E1,7.118473426E-3
3.898930142E1,1.396114100E-2
3.899923542E1,6.767147128E-3
3.900916942E1,8.213218376E-3
3.901910442E1,1.147463081E-2
3.902903842E1,1.275007300E-2
3.903897242E1,4.280381128E-3
3.904890642E1,1.032936227E-2
3.905884042E1,5.957837664E-3
3.906877442E1,3.829432894E-3
3.907870842E1,3.182383664E-3
3.908864342E1,8.198180068E-3
3.909857742E1,4.279851224E-3
3.910851142E1,1.242418209E-2
3.911844542E1,5.991660152E-3
3.912837942E1,9.077802300E-3
3.913831342E1,5.203016941E-3
3.914824742E1,2.453290690E-3
3.915818142E1,5.894176103E-4
3.916811542E1,5.255440883E-3
3.917805042E1,1.986536700E-3
3.918798442E1,6.954057030E-3
3.919791842E1,1.001977047E-2
3.920785242E1,1.172458101E-3
3.921778642E1,4.878533017E-3
3.922772042E1,8.373687901E-3
3.923765471E1,1.455514502E-2
3.924758871E1,7.755107302E-3
3.925752371E1,7.978525758E-3
3.926745771E1,1.487056576E-2
3.927739171E1,1.710602939E-3
3.928732571E1,8.193209935E-3
3.929725971E1,1.337044431E-2
3.930719371E1,8.357644603E-3
3.931712771E1,2.421332002E-3
3.932706171E1,3.617763687E-3
3.933699671E1,9.305533078E-3
3.934693071E1,-3.741249572E-3
3.935686471E1,6.451817751E-3
3.936679871E1,9.267215542E-3
3.937673271E1,-6.593978181E-3
3.938666671E1,7.841262370E-3
3.939660071E1,1.091596590E-2
3.940653571E1,-5.159290731E-3
3.941646971E1,1.303910818E-3
3.942640371E1,1.153206144E-2
3.943633771E1,7.087903451E-3
3.944627171E1,3.380458094E-3
3.945620571E1,1.566416083E-2
3.946613971E1,2.161404993E-3
3.947607371E1,4.191613086E-3
3.948600871E1,2.812492456E-3
3.949594271E1,1.157112814E-2
3.950587671E1,1.342528023E-2
3.951581071E1,6.471771374E-4
3.952574471E1,4.939873964E-3
3.953567871E1,7.334509771E-3
3.954561271E1,1.139996918E-2
3.955554671E1,1.654963028E-3
3.956548171E1,-6.682600044E-3
3.957541571E1,-3.756105155E-4
3.958534971E1,2.240762673E-3
3.959528371E1,1.482764354E-2
3.960521771E1,9.238052554E-3
3.961515171E1,3.409420084E-3
3.962508571E1,6.189825945E-4
3.963501971E1,6.226371042E-3
3.964495471E1,4.823624007E-3
3.965488871E1,6.635310687E-4
3.966482271E1,-2.609356530E-3
3.967475671E1,3.182840478E-3
3.968469071E1,1.194416223E-2
3.969462471E1,1.081077084E-2
3.970455871E1,7.283401452E-3
3.971449271E1,5.675636418E-3
3.972442771E1,1.003787857E-2
3.973436171E1,4.339986183E-3
3.974429571E1,7.207625192E-3
3.975422971E1,-1.238038279E-3
3.976416371E1,3.557866272E-3
3.977409771E1,-6.391920336E-4
3.978403171E1,4.295821432E-3
3.979396571E1,1.144943297E-2
3.980390071E1,3.190588038E-3
3.981383471E1,-2.150112558E-3
3.982376871E1,4.105330110E-3
3.983370271E1,6.623780709E-3
3.984363671E1,5.662498455E-3
3.985357071E1,7.658555154E-3
3.986350471E1,5.141109545E-3
3.987343871E1,8.267451301E-3
3.988337371E1,2.872481234E-3
3.989330771E1,2.316173483E-3
3.990324171E1,4.386745635E-3
3.991317571E1,1.005154643E-3
3.992310971E1,3.635159153E-3
3.993304371E1,6.511185262E-3
3.994297771E1,8.214515727E-3
3.995291171E1,1.503794231E-3
3.996284671E1,-1.110989247E-3
3.997278071E1,1.350651998E-3
3.998271471E1,2.728658002E-3
3.999264871E1,1.475544870E-3
4.000258271E1,3.131056074E-3
4.001251671E1,4.385229014E-3
4.002245071E1,3.450496774E-3
4.003238571E1,1.026168074E-2
4.004231971E1,-8.517145682E-3
4.005225371E1,-6.219043750E-3
4.006218771E1,1.557679977E-3
4.007212171E1,4.773904402E-3
4.008205571E1,9.153121747E-3
4.009198971E1,5.538117215E-3
4.010192371E1,7.936973982E-3
4.011185871E1,-7.877661288E-4
4.012179271E1,-2.671921737E-3
4.013172671E1,3.322205208E-3
4.014166071E1,1.792500503E-3
4.015159471E1,9.904909227E-3
4.016152871E1,7.555698976E-3
4.017146271E1,7.659011967E-3
4.018139671E1,6.800421439E-3
4.019133171E1,4.636659287E-3
4.020126571E1,3.861665670E-3
4.021119971E1,6.026377995E-3
4.022113371E1,-2.966365591E-4
4.023106771E1,-1.954048108E-3
4.024100217E1,-2.043967322E-3
4.025093617E1,3.944860585E-3
4.026087017E1,4.367924910E-3
4.027080517E1,8.756095804E-3
4.028073917E1,8.162110057E-3
4.029067317E1,-9.959087335E-4
4.030060717E1,2.551578730E-4
4.031054117E1,5.555512682E-3
4.032047517E1,3.221249375E-3
4.033040917E1,1.495151315E-3
4.034034317E1,6.864320543E-3
4.035027817E1,-8.175503835E-4
4.036021217E1,2.893037852E-3
4.037014617E1,7.421761192E-3
4.038008017E1,9.510898255E-3
4.039001417E1,1.079997176E-2
4.039994817E1,8.702922687E-3
4.040988217E1,6.200460568E-3
4.041981717E1,6.645470224E-3
4.042975117E1,1.363680325E-3
4.043968517E1,7.252886295E-3
4.044961917E1,1.109211328E-2
4.045955317E1,-6.804331765E-4
4.046948717E1,9.337181132E-3
4.047942117E1,1.472882560E-2
4.048935517E1,4.119728878E-3
4.049929017E1,3.528721556E-3
4.050922417E1,8.332793936E-3
4.051915817E1,4.549846407E-3
4.052909217E1,8.447582088E-3
