Time (s),Linear Acceleration x (m/s^2)
2.731554167E-2,-9.361465350E-3
3.725454167E-2,1.505292580E-3
4.719254167E-2,-1.929149933E-2
5.713154167E-2,5.195251107E-4
6.707054167E-2,7.214733213E-4
7.700954167E-2,-8.415020406E-3
8.694854167E-2,-1.270307600E-4
9.688754167E-2,-2.822743356E-4
1.068265417E-1,-1.189616024E-2
1.167645417E-1,-4.879501462E-4
1.267035417E-1,1.102097824E-2
1.366425417E-1,6.329172403E-3
1.465815417E-1,6.439319327E-3
1.565205417E-1,-9.259943068E-3
1.664595417E-1,-4.209995270E-4
1.763985417E-1,-1.823812343E-2
1.863375417E-1,-5.549738556E-3
1.962755417E-1,-7.163423896E-3
2.062145417E-1,-8.103290722E-3
2.161535417E-1,-5.140798911E-3
2.260925417E-1,-3.160566241E-3
2.360315417E-1,-9.458529130E-3
2.459705417E-1,3.810264990E-3
2.559095417E-1,1.465166062E-3
2.658485417E-1,-4.692536741E-3
2.757865417E-1,-4.712124914E-3
2.857255417E-1,-7.956964150E-3
2.956645417E-1,2.473664582E-3
3.056035417E-1,-6.413737759E-3
3.155425417E-1,1.035826944E-2
3.254815417E-1,-9.219378009E-3
3.354205417E-1,-1.190865867E-2
3.453595417E-1,1.438173853E-2
3.552975417E-1,2.526362613E-2
3.652365417E-1,-7.589685917E-4
3.751755417E-1,-2.760835961E-3
3.851145417E-1,1.694523096E-3
3.950535417E-1,1.089073151E-2
4.049920417E-1,2.411245555E-3
4.149310417E-1,2.422428355E-3
4.248700417E-1,-4.415524900E-3
4.348080417E-1,-1.242533326E-5
4.447470417E-1,-5.100818574E-3
4.546860417E-1,-6.268068999E-3
4.646250417E-1,-2.329092175E-3
4.745640417E-1,-2.753307670E-3
4.845030417E-1,-5.749347880E-3
4.944420417E-1,-1.304806173E-3
5.043800417E-1,-2.580083907E-4
5.143190417E-1,6.113994867E-4
5.242580417E-1,4.121044502E-3
5.341970417E-1,4.917727634E-3
5.441360417E-1,-3.007661551E-3
5.540750417E-1,-2.373823375E-3
5.640140417E-1,-5.034452677E-3
5.739530417E-1,7.312674075E-4
5.838910417E-1,1.380045220E-2
5.938300417E-1,-2.547778040E-3
6.037690417E-1,-2.065528929E-2
6.137080417E-1,6.759673655E-3
6.236470417E-1,1.136450216E-2
6.335860417E-1,5.369936675E-3
6.435250417E-1,8.350335583E-3
6.534640417E-1,-8.946970850E-4
6.634020417E-1,-1.406460017E-2
6.733410417E-1,-7.563373446E-4
6.832800417E-1,-6.939694807E-3
6.932190417E-1,-8.227032423E-3
7.031580417E-1,9.610849097E-3
7.130970417E-1,-1.022539146E-2
7.230360417E-1,-1.117549092E-2
7.329750417E-1,6.361332089E-3
7.429130417E-1,6.648284197E-4
7.528520417E-1,-8.793335259E-3
7.627910417E-1,8.254075795E-4
7.727300417E-1,-7.530994490E-3
7.826690417E-1,-3.801786527E-3
7.926080417E-1,-2.774540372E-2
8.025470417E-1,-1.007921107E-2
8.124850417E-1,-6.610788926E-3
8.224240417E-1,-9.853800908E-3
8.323630417E-1,-6.847820431E-3
8.423020417E-1,8.251152188E-4
8.522410417E-1,5.236547068E-3
8.621800417E-1,3.301118687E-3
8.721190417E-1,6.703394204E-3
8.820580417E-1,-9.530888423E-3
8.919960417E-1,-4.930664599E-3
9.019350417E-1,4.099044353E-3
9.118740417E-1,5.883322209E-3
9.218130417E-1,-2.901607677E-3
9.317520417E-1,2.252771392E-2
9.416910417E-1,-3.528502285E-3
9.516300417E-1,1.622975104E-2
9.615690417E-1,-1.269218557E-2
9.715070417E-1,-4.592987895E-4
9.814460417E-1,-7.232567221E-3
9.913850417E-1,1.005984217E-2
1.001324042E0,2.209224254E-3
1.011263042E0,-2.755061835E-3
1.021202042E0,-7.997529209E-4
1.031141042E0,-8.013974503E-3
1.041080042E0,5.086346716E-3
1.051018042E0,-1.586715057E-3
1.060957042E0,1.371829882E-3
1.070896042E0,3.929475099E-3
1.080835042E0,8.786903322E-4
1.090774042E0,-6.374926865E-3
1.100713042E0,-5.608795434E-3
1.110652042E0,8.033635765E-3
1.120591042E0,-7.257856429E-4
1.130529042E0,2.630662322E-3
1.140468042E0,5.777268335E-3
1.150407042E0,-1.530194409E-2
1.160346042E0,-2.876420796E-2
1.170285042E0,-6.948100179E-3
1.180224042E0,1.094861895E-2
1.190163042E0,2.323391140E-3
1.200102042E0,6.253597140E-3
1.210040042E0,1.787566915E-3
1.219979042E0,-1.465516895E-2
1.229918042E0,1.442508101E-3
1.239857042E0,-3.087037504E-3
1.249796042E0,-4.840325117E-3
1.259735042E0,-4.700357392E-3
1.269674042E0,-2.549678385E-3
1.279613042E0,-4.162486643E-4
1.289551042E0,-5.803580806E-3
1.299490042E0,-4.200566635E-3
1.309429042E0,-6.410375610E-3
1.319368042E0,-3.709619790E-3
1.329307042E0,-1.725147888E-3
1.339246042E0,-1.257078275E-3
1.349185042E0,2.279098481E-3
1.359124042E0,-1.785198793E-2
1.369062042E0,-1.308533773E-3
1.379001042E0,1.362401247E-4
1.388940042E0,-1.048354603E-2
1.398879042E0,-1.471459128E-2
1.408818042E0,-6.386621296E-3
1.418757042E0,2.689134479E-3
1.428696042E0,-1.195536330E-2
1.438634042E0,-1.129155815E-2
1.448573042E0,2.596236840E-3
1.458512042E0,-3.421205878E-3
1.468451042E0,-5.707905740E-3
1.478390042E0,-6.068898216E-3
1.488329042E0,-1.331630275E-2
1.498268042E0,8.782956451E-3
1.508207042E0,-7.813999727E-3
1.518145042E0,-8.775355071E-3
1.528084042E0,-2.306901991E-2
1.538023042E0,-1.516292654E-2
1.547962042E0,-8.692032248E-3
1.557901042E0,-7.423332632E-3
1.567840042E0,1.166497596E-2
1.577779042E0,-1.126539186E-2
1.587718042E0,1.358827136E-2
1.597656042E0,3.219623119E-4
1.607595042E0,2.631612495E-3
1.617534042E0,7.117450163E-3
1.627473042E0,2.066990733E-3
1.637412042E0,6.075987965E-4
1.647351042E0,-1.259270981E-3
1.657290042E0,-1.120209575E-2
1.667229042E0,6.175463721E-3
1.677167042E0,3.219696209E-3
1.687106042E0,1.768271104E-3
1.697045042E0,1.598299854E-2
1.706984042E0,9.452974275E-3
1.716923042E0,-5.123476535E-3
1.726862042E0,-1.154240370E-3
1.736801042E0,-1.594024077E-3
1.746740042E0,-3.853315115E-4
1.756678042E0,3.581785038E-3
1.766617042E0,-4.035675153E-3
1.776556042E0,-4.153277278E-3
1.786495042E0,-4.751081988E-3
1.796434042E0,-1.062029779E-2
1.806373042E0,-1.298271909E-2
1.816312042E0,-1.294792816E-3
1.826251042E0,-1.461116865E-2
1.836189042E0,-7.542104200E-3
1.846128042E0,-1.242138639E-2
1.856067042E0,-9.126188010E-3
1.866006042E0,-5.154832229E-3
1.875945042E0,-2.473123714E-2
1.885884042E0,6.903442070E-3
1.895823042E0,1.012050703E-2
1.905762042E0,-1.415830180E-3
1.915701042E0,-4.462302625E-3
1.925639042E0,-4.393305480E-3
1.935578042E0,-9.656603560E-3
1.945517042E0,-9.119756073E-3
1.955456042E0,-2.406713963E-3
1.965395042E0,-4.868830293E-3
1.975334042E0,3.370335102E-3
1.985273042E0,5.991934240E-4
1.995212042E0,-2.631393224E-3
2.005150042E0,1.231094711E-2
2.015089042E0,-2.167782113E-3
2.025028042E0,-2.137668952E-3
2.034967042E0,2.823620439E-3
2.044906042E0,-2.788317874E-3
2.054845042E0,3.354839981E-4
2.064784042E0,-1.849620491E-3
2.074723042E0,4.673240930E-3
2.084661042E0,8.365392163E-3
2.094600042E0,-6.501080543E-3
2.104539042E0,-1.181188725E-2
2.114478042E0,-2.666768879E-3
2.124417042E0,1.874975480E-2
2.134356042E0,-6.899714470E-3
2.144295042E0,-1.026171729E-2
2.154234042E0,1.456767999E-2
2.164172042E0,-3.675194308E-3
2.174111042E0,-7.304561064E-3
2.184050042E0,-1.502310500E-2
2.193989042E0,-5.849189088E-3
2.203928042E0,4.535465911E-3
2.213867042E0,-1.342082173E-2
2.223806042E0,-1.844694212E-2
2.233745042E0,-1.617559120E-3
2.243683042E0,-1.074645147E-2
2.253622042E0,-1.744611807E-2
2.263561042E0,-4.847780317E-3
2.273500042E0,-2.549254462E-2
2.283439042E0,-2.076982163E-2
2.293378042E0,-2.511422977E-2
2.303317042E0,-1.022583000E-2
2.313256042E0,1.551193222E-2
2.323195042E0,7.175045237E-3
2.333133042E0,-5.121941641E-3
2.343072042E0,-5.097894967E-3
2.353011042E0,-1.805605575E-2
2.362950042E0,-1.916512638E-2
2.372889042E0,-8.372555003E-3
2.382828042E0,-1.489731677E-2
2.392767042E0,-5.820537731E-3
2.402706167E0,9.268348441E-3
2.412644167E0,-1.099232689E-2
2.422583167E0,-1.840586543E-2
2.432522167E0,-1.000809431E-2
2.442461167E0,-2.169170827E-3
2.452400167E0,1.101863936E-2
2.462339167E0,-1.111577623E-2
2.472278167E0,2.534475625E-3
2.482217167E0,-2.011829562E-2
2.492156167E0,-5.919063315E-3
2.502094167E0,-5.683932155E-3
2.512033167E0,-6.696669906E-3
2.521972167E0,-1.085579440E-2
2.531911167E0,-1.328867465E-2
2.541850167E0,-1.478833929E-3
2.551789167E0,1.096301772E-2
2.561728167E0,-8.988120630E-3
2.571667167E0,-4.934538379E-3
2.581605167E0,-5.715507120E-3
2.591544167E0,-9.885010421E-3
2.601483167E0,1.653007865E-3
2.611422167E0,-4.881694168E-3
2.621361167E0,-2.004220873E-2
2.631300167E0,-1.453895554E-2
2.641239167E0,-4.186167866E-3
2.651178167E0,4.119728878E-3
2.661116167E0,-8.977376372E-3
2.671055167E0,-2.640017867E-3
2.680994167E0,-1.799151711E-2
2.690933167E0,-1.315053418E-2
2.700872167E0,1.003433369E-2
2.710811167E0,8.148533553E-3
2.720750167E0,-3.267862648E-4
2.730689167E0,-1.172403283E-2
2.740628167E0,-1.781785481E-2
2.750566167E0,-7.040851638E-3
2.760505167E0,-5.180121437E-3
2.770444167E0,1.349171922E-2
2.780383167E0,1.055049665E-2
2.790322167E0,-1.495937034E-2
2.800261167E0,-1.991707832E-3
2.810200167E0,2.996990383E-2
2.820139167E0,4.937608168E-3
2.830077167E0,-1.241122685E-2
2.840016167E0,3.995110095E-3
2.849955167E0,2.293058708E-3
2.859894167E0,-1.331308678E-2
2.869833167E0,-1.999374993E-2
2.879772167E0,-1.680409379E-2
2.889711167E0,-2.674297169E-3
2.899650167E0,1.378707670E-2
2.909589167E0,-6.650184542E-3
2.919527167E0,-1.328779757E-2
2.929466167E0,-1.772393391E-2
2.939405167E0,-1.553166658E-3
2.949344167E0,-2.011844181E-2
2.959283167E0,-7.956087068E-3
2.969222167E0,-1.342462242E-2
2.979161167E0,-1.962617934E-3
2.989100167E0,2.232379228E-2
2.999038167E0,-1.033926599E-2
3.008977167E0,-2.463139594E-3
3.018916167E0,1.475544870E-3
3.028855167E0,7.056712210E-3
3.038794167E0,7.229862884E-3
3.048733167E0,-4.642616138E-3
3.058672167E0,-8.281192258E-3
3.068611167E0,2.841966078E-3
3.078550167E0,4.723453894E-3
3.088488167E0,6.556482911E-3
3.098427167E0,-5.670995191E-3
3.108366167E0,2.771287858E-3
3.118305167E0,-9.264986292E-3
3.128244167E0,-1.356831774E-2
3.138183167E0,1.907288656E-3
3.148122167E0,-1.845973291E-2
3.158061167E0,-6.583160833E-3
3.168000167E0,1.122446135E-2
3.177938167E0,1.460415199E-3
3.187877167E0,-4.784703478E-3
3.197816167E0,-2.697349817E-2
3.207755167E0,-1.250419758E-2
3.217694167E0,-8.966339752E-3
3.227633167E0,5.446973741E-3
3.237572167E0,1.083306335E-2
3.247511167E0,8.063091114E-3
3.257449167E0,9.664716572E-3
3.267388167E0,1.493649311E-2
3.277327167E0,-6.820046157E-4
3.287266167E0,-1.003053300E-2
3.297205167E0,-8.114327341E-3
3.307144167E0,5.167988464E-3
3.317083167E0,-2.211694703E-2
3.327022167E0,8.604908735E-4
3.336961167E0,-1.928192452E-3
3.346899167E0,-3.313178569E-4
3.356838167E0,7.902146503E-3
3.366777167E0,-6.549173892E-3
3.376716167E0,-2.090014145E-3
3.386655167E0,-1.084585413E-2
3.396594167E0,1.570737541E-2
3.406533792E0,3.197549880E-3
3.416472792E0,-2.567950934E-3
3.426411792E0,-4.837840050E-3
3.436349792E0,-2.352210604E-2
3.446288792E0,-6.601652652E-3
3.456227792E0,-1.077583373E-2
3.466166792E0,-9.532861859E-3
3.476105792E0,-6.009183526E-3
3.486044792E0,-7.018778399E-3
3.495983792E0,-4.490953982E-3
3.505922792E0,9.801541418E-3
3.515861792E0,-5.650310665E-3
3.525799792E0,-1.179054491E-2
3.535738792E0,1.815414280E-3
3.545677792E0,-1.067496926E-2
3.555616792E0,-1.975174829E-2
3.565555792E0,8.334109560E-3
3.575494792E0,3.121243715E-3
3.585433792E0,-1.450321443E-2
3.595372792E0,-5.309417993E-3
3.605311792E0,-6.588642597E-3
3.615249792E0,1.277653165E-2
3.625188792E0,-1.985100478E-2
3.635127792E0,-3.451319039E-4
3.645066792E0,-9.485207051E-3
3.655005792E0,-5.425265953E-3
3.664944792E0,4.432116374E-3
3.674883792E0,1.344523385E-2
3.684822792E0,1.780966870E-2
3.694761792E0,-3.844544291E-5
3.704699792E0,-2.422939986E-3
3.714638792E0,-1.042807057E-2
3.724577792E0,-1.140996426E-2
3.734516792E0,1.924318671E-3
3.744455792E0,8.957715109E-3
3.754394792E0,1.034927934E-2
3.764333792E0,-5.600097701E-3
3.774272792E0,1.261463687E-3
3.784211792E0,1.360712864E-2
3.794149792E0,-1.960681044E-2
3.804088792E0,-1.145981178E-2
3.814027792E0,1.092347592E-2
3.823966792E0,-8.278926462E-3
3.833905792E0,6.406428739E-3
3.843844792E0,-6.854983270E-3
3.853783792E0,-1.237650901E-2
3.863722792E0,2.938445136E-3
3.873661792E0,3.120220453E-3
3.883599792E0,6.835468188E-3
3.893538792E0,-6.950512156E-3
3.903477792E0,4.427730963E-3
3.913416792E0,-8.188660070E-3
3.923355792E0,1.520159125E-2
3.933294792E0,6.579579413E-4
3.943233792E0,-1.025791660E-2
3.953172792E0,4.796178639E-4
3.963111792E0,-3.954179585E-3
3.973049792E0,-1.140207052E-4
3.982988792E0,3.483332545E-3
3.992927792E0,4.861228913E-3
4.002866792E0,5.282228440E-4
4.012805792E0,-1.498626754E-2
4.022744792E0,-1.124485351E-2
4.032683792E0,1.197604783E-2
4.042622792E0,7.865674496E-3
4.052561792E0,1.085674457E-2
4.062499792E0,7.914937288E-3
4.072438792E0,8.209929317E-3
4.082377792E0,4.468076751E-3
4.092316792E0,-2.126975857E-2
4.102255792E0,-1.909897976E-2
4.112194792E0,-4.591891542E-3
4.122133792E0,-6.444801092E-3
4.132072792E0,4.762191698E-3
4.142011792E0,3.139077723E-3
4.151949792E0,-1.254585899E-2
4.161888792E0,-2.169930965E-2
4.171827792E0,9.732690454E-4
4.181766792E0,-1.786178201E-3
4.191705792E0,-7.685507163E-3
4.201644792E0,-1.773160838E-2
4.211583792E0,-7.885335758E-3
4.221522792E0,2.304826230E-3
4.231461792E0,-1.515744478E-3
4.241399792E0,-6.772537529E-3
4.251338792E0,-1.782837979E-2
4.261277792E0,-9.124506935E-3
4.271216792E0,-2.282409467E-2
4.281155792E0,-2.832011193E-2
4.291094792E0,2.928724140E-4
4.301033792E0,6.682855859E-3
4.310972792E0,6.790444627E-3
4.320911792E0,7.697859406E-3
4.330850792E0,4.355590940E-3
4.340788792E0,7.439558655E-3
4.350727792E0,7.865089774E-3
4.360666792E0,-1.026917249E-4
4.370605792E0,-4.391258955E-3
4.380544792E0,-1.189031303E-2
4.390483792E0,-8.284773678E-4
4.400422292E0,-1.927081481E-2
4.410361292E0,-5.747447535E-3
4.420300292E0,2.693154439E-3
4.430238292E0,-1.223237514E-2
4.440177292E0,-3.073296547E-3
4.450116292E0,-2.501935869E-2
4.460055292E0,5.532196909E-4
4.469994292E0,1.320951797E-2
4.479933292E0,-3.284015581E-3
4.489872292E0,5.546303317E-3
4.499811292E0,-1.161183938E-2
4.509750292E0,-1.177943520E-2
4.519689292E0,2.598356456E-4
4.529627292E0,-1.527153857E-2
4.539566292E0,2.014263466E-2
4.549505292E0,-7.106632814E-3
4.559444292E0,-4.663300663E-3
4.569383292E0,1.576277778E-2
4.579322292E0,-7.649619877E-3
4.589261292E0,7.616071478E-3
4.599200292E0,-1.199775562E-2
4.609139292E0,-1.114713192E-2
4.619078292E0,-8.157742918E-3
4.629016292E0,2.383252010E-3
4.638955292E0,-6.452841014E-3
4.648894292E0,-5.023196787E-3
4.658833292E0,4.446149692E-3
4.668772292E0,2.170924991E-3
4.678711292E0,-9.657188281E-3
4.688650292E0,-8.286966383E-3
4.698589292E0,6.330122575E-3
4.708528292E0,-3.195941895E-3
4.718466292E0,-7.790683955E-3
4.728405292E0,-9.819813967E-3
4.738344292E0,-1.117848761E-2
4.748283292E0,9.216746762E-3
4.758222292E0,2.248400599E-3
4.768161292E0,-6.681759506E-3
4.778100292E0,3.522216529E-4
4.788039292E0,-3.214945346E-3
4.797978292E0,-3.389265463E-3
4.807917292E0,5.689998642E-3
4.817855292E0,-2.945242524E-3
4.827794292E0,1.200426064E-2
4.837733292E0,2.806809694E-3
4.847672292E0,-8.031881601E-4
4.857611292E0,3.314640373E-3
4.867550292E0,-1.560658403E-2
4.877489292E0,6.515260041E-3
4.887428292E0,8.727700263E-3
4.897367292E0,-1.336300738E-2
4.907305292E0,-4.782218412E-3
4.917244292E0,8.708185181E-3
4.927183292E0,-1.056065619E-2
4.937122292E0,-7.232055590E-3
4.947061292E0,-6.584768817E-3
4.957000292E0,2.320759892E-2
4.966939292E0,-1.327317953E-3
4.976878292E0,-3.396939933E-3
4.986817292E0,-8.424375951E-3
4.996756292E0,-7.431664914E-3
5.006694292E0,-1.101074561E-2
5.016633292E0,1.388070524E-2
5.026572292E0,-5.281351358E-3
5.036511292E0,-2.937568054E-3
5.046450292E0,3.181835487E-3
5.056389292E0,-1.073029853E-2
5.066328292E0,7.413538545E-3
5.076267292E0,-5.603825301E-4
5.086206292E0,-7.110141143E-3
5.096145292E0,-2.160663128E-2
5.106083292E0,3.533837870E-3
5.116022292E0,4.627486467E-3
5.125961292E0,-3.847394809E-3
5.135900292E0,-1.034248196E-2
5.145839292E0,-1.083934911E-2
5.155778292E0,-2.483385578E-3
5.165717292E0,2.307852164E-2
5.175656292E0,-2.255197987E-3
5.185595292E0,-1.317085326E-2
5.195534292E0,2.436900213E-3
5.205472292E0,1.825018331E-2
5.215411292E0,1.199877888E-2
5.225350292E0,9.137443900E-3
5.235289292E0,-7.276859879E-4
5.245228292E0,-3.781467453E-3
5.255167292E0,-8.298003003E-3
5.265106292E0,1.478234589E-2
5.275045292E0,-8.751820028E-4
5.284984292E0,-2.033625059E-2
5.294922292E0,-5.991422608E-3
5.304861292E0,-5.022465885E-3
5.314800292E0,-1.298103802E-2
5.324739292E0,-1.397272579E-2
5.334678292E0,-1.014338426E-2
5.344617292E0,1.008396193E-2
5.354556292E0,4.662350491E-3
5.364495292E0,-1.255397201E-3
5.374434292E0,-1.767774090E-2
5.384373292E0,9.622470438E-3
5.394311292E0,-8.245451152E-3
5.404250708E0,1.505584940E-3
5.414189708E0,-2.039362639E-2
5.424128708E0,-3.068136379E-2
5.434067708E0,6.673573405E-3
5.444006708E0,-4.534954280E-3
5.453945708E0,1.864384711E-3
5.463884708E0,1.192218035E-2
5.473823708E0,4.316999316E-3
5.483762708E0,-2.763569534E-2
5.493700708E0,5.117848590E-3
5.503639708E0,-3.231463730E-3
5.513578708E0,2.097323164E-3
5.523517708E0,7.447671667E-3
5.533456708E0,6.022851393E-3
5.543395708E0,-9.866153151E-3
5.553334708E0,7.417997047E-3
5.563273708E0,1.939214453E-2
5.573212708E0,-5.278573930E-4
5.583151708E0,-1.590223387E-3
5.593090708E0,-3.110543311E-2
5.603028708E0,-9.729328305E-3
5.612967708E0,1.033495367E-3
5.622906708E0,8.050081059E-3
5.632845708E0,6.388667822E-3
5.642784708E0,-1.420961112E-2
5.652723708E0,-3.922750801E-4
5.662662708E0,1.969890408E-2
5.672601708E0,2.360425942E-2
5.682540708E0,-3.462282568E-3
5.692479708E0,-4.885202497E-3
5.702417708E0,-1.176145501E-2
5.712356708E0,5.735533834E-3
5.722295708E0,2.231078222E-3
5.732234708E0,-2.100685313E-2
5.742173708E0,5.290414542E-3
5.752112708E0,-9.725381434E-4
5.762051708E0,1.031938545E-2
5.771990708E0,-1.002651304E-3
5.781929708E0,5.744450837E-3
5.791868708E0,8.987901360E-4
5.801806708E0,-3.914418519E-3
5.811745708E0,7.387079895E-3
5.821684708E0,6.561160684E-3
5.831623708E0,-1.619751826E-3
5.841562708E0,-2.816442981E-2
5.851501708E0,5.172154605E-3
5.861440708E0,1.202465281E-2
5.871379708E0,-6.150101423E-3
5.881318708E0,-1.790855974E-3
5.891257708E0,-1.642804474E-2
5.901196708E0,-5.024804771E-3
5.911134708E0,-1.732931994E-2
5.921073708E0,-6.300667226E-3
5.931012708E0,8.915980607E-3
5.940951708E0,1.275394678E-2
5.950890708E0,1.063104205E-2
5.960829708E0,-4.430435300E-3
5.970768708E0,-1.291204087E-2
5.980707708E0,-1.975993440E-3
5.990646708E0,1.549512148E-5
6.000585708E0,6.753680259E-3
6.010523708E0,8.634364083E-3
6.020462708E0,1.557749413E-2
6.030401708E0,3.450661227E-3
6.040340708E0,-3.208586499E-3
6.050279708E0,2.697905302E-3
6.060218708E0,-9.308036417E-3
6.070157708E0,-4.777686819E-3
6.080096708E0,6.043097377E-3
6.090035708E0,-6.892697811E-3
6.099974708E0,-8.318979889E-3
6.109913708E0,-7.129290774E-3
6.119851708E0,-2.028252929E-4
6.129790708E0,1.090147577E-2
6.139729708E0,2.535571977E-3
6.149668708E0,-7.166566774E-3
6.159607708E0,4.767892733E-3
6.169546708E0,-1.067189947E-3
6.179485708E0,-8.781275377E-3
6.189424708E0,5.088685602E-3
6.199363708E0,2.835168689E-4
6.209302708E0,-1.106731743E-3
6.219240708E0,6.418342441E-3
6.229179708E0,-4.289444312E-3
6.239118708E0,-4.725281149E-3
6.249057708E0,-1.619678736E-3
6.258996708E0,2.685479969E-3
6.268935708E0,6.324713901E-3
6.278874708E0,-1.257239074E-2
6.288813708E0,1.046234988E-2
6.298752708E0,-2.142200544E-3
6.308691708E0,-5.191888958E-3
6.318630708E0,-4.334029332E-3
6.328568708E0,-1.875384785E-2
6.338507708E0,4.914804026E-3
6.348446708E0,-1.980744302E-3
6.358385708E0,-9.574815631E-4
6.368324708E0,-1.040512025E-3
6.378263708E0,-2.906358540E-3
6.388202708E0,-1.810831524E-2
6.398141708E0,-2.470740974E-3
6.408080417E0,8.635898978E-3
6.418019417E0,-3.697121367E-3
6.427958417E0,-1.896105856E-3
6.437896417E0,-3.189436868E-3
6.447835417E0,5.997342914E-3
6.457774417E0,-2.463870496E-4
6.467713417E0,2.164639235E-3
6.477652417E0,1.453223124E-2
6.487591417E0,1.499306493E-2
6.497530417E0,3.216918781E-3
6.507469417E0,-1.497106478E-3
6.517408417E0,1.106877923E-3
6.527347417E0,-8.850637972E-3
6.537286417E0,-4.220008627E-3
6.547224417E0,-3.131110892E-3
6.557163417E0,-6.248261556E-3
6.567102417E0,-9.384123310E-3
6.577041417E0,-2.177203439E-2
6.586980417E0,1.043998428E-2
6.596919417E0,1.870326944E-2
6.606858417E0,3.788264841E-3
6.616797417E0,-1.014199555E-3
6.626736417E0,1.308212176E-2
6.636675417E0,5.613765568E-3
6.646614417E0,-2.175895125E-3
6.656552417E0,-1.532445587E-2
6.666491417E0,2.973966971E-3
6.676430417E0,6.039150506E-3
6.686369417E0,-2.086768940E-2
6.696308417E0,-2.438581288E-2
6.706247417E0,-1.444993168E-3
6.716186417E0,-1.555213183E-3
6.726125417E0,-1.527095385E-2
6.736064417E0,-6.116991565E-3
6.746003417E0,3.651147634E-3
6.755942417E0,-1.279882416E-3
6.765880417E0,2.315205038E-3
6.775819417E0,-5.714995489E-3
6.785758417E0,6.266534105E-3
6.795697417E0,-8.998060897E-3
6.805636417E0,-6.326248795E-3
6.815575417E0,-7.382913753E-3
6.825514417E0,2.008518577E-3
6.835453417E0,-6.245264858E-3
6.845392417E0,-2.028764561E-3
6.855331417E0,-8.324315473E-3
6.865270417E0,7.980718464E-4
6.875208417E0,-1.098209426E-2
6.885147417E0,3.509937376E-3
6.895086417E0,-3.666642755E-3
6.905025417E0,-1.035198368E-2
6.914964417E0,8.279511184E-3
6.924903417E0,-5.079476237E-3
6.934842417E0,-2.457950190E-3
6.944781417E0,1.208933763E-2
6.954720417E0,-1.272500306E-3
6.964659417E0,3.006930649E-3
6.974598417E0,1.192678504E-2
6.984536417E0,1.714571737E-2
6.994475417E0,3.635871783E-3
7.004414417E0,-1.239024997E-3
7.014353417E0,1.550900862E-3
7.024292417E0,1.933235675E-4
7.034231417E0,-4.053874612E-3
7.044170417E0,1.440388486E-3
7.054109417E0,-3.382541165E-3
7.064048417E0,-4.106938094E-3
7.073987417E0,-2.211460814E-2
7.083926417E0,-1.670586057E-2
7.093865417E0,-3.983634934E-3
7.103803417E0,-6.065316796E-3
7.113742417E0,2.119834945E-3
7.123681417E0,2.419285476E-3
7.133620417E0,-3.323411196E-3
7.143559417E0,-4.667247534E-3
7.153498417E0,6.981648579E-3
7.163437417E0,7.724244967E-3
7.173376417E0,-4.286374524E-3
7.183315417E0,6.473671719E-3
7.193254417E0,-3.312009126E-3
7.203193417E0,1.438510068E-2
7.213131417E0,1.484710380E-2
7.223070417E0,-3.426468372E-4
7.233009417E0,-5.935654789E-3
7.242948417E0,8.530649096E-3
7.252887417E0,1.012957022E-3
7.262826417E0,8.610755950E-3
7.272765417E0,-1.366713569E-3
7.282704417E0,-1.715288021E-2
7.292643417E0,6.685414016E-3
7.302582417E0,-1.284194738E-3
7.312521417E0,7.197776288E-3
7.322459417E0,1.153509468E-3
7.332398417E0,8.722145408E-3
7.342337417E0,-4.497532099E-3
7.352276417E0,-1.160160676E-3
7.362215417E0,2.065894380E-3
7.372154417E0,-8.598257527E-3
7.382093417E0,1.005282551E-3
7.392032417E0,1.604183614E-3
7.401971417E0,-1.057395861E-2
7.411910208E0,4.034432620E-3
7.421849208E0,-5.915481895E-3
7.431788208E0,2.949920297E-3
7.441726208E0,-1.916498020E-3
7.451665208E0,2.855853215E-3
7.461604208E0,-4.913707674E-3
7.471543208E0,1.582183465E-2
7.481482208E0,2.399770394E-3
7.491421208E0,-1.588008754E-2
7.501360208E0,1.399172924E-2
7.511299208E0,-1.391856596E-3
7.521238208E0,-1.933023714E-2
7.531177208E0,1.879901759E-2
7.541116208E0,7.926412448E-3
7.551055208E0,8.487233520E-4
7.560993208E0,-1.235823646E-2
7.570932208E0,1.536502093E-3
7.580871208E0,7.013004273E-3
7.590810208E0,5.669021755E-3
7.600749208E0,-7.321664169E-3
7.610688208E0,-7.143031731E-3
7.620627208E0,4.356614202E-3
7.630566208E0,1.143569201E-3
7.640505208E0,7.934598550E-3
7.650444208E0,-8.126752675E-3
7.660383208E0,2.651054487E-3
7.670321208E0,-5.166745931E-3
7.680260208E0,5.917455330E-3
7.690199208E0,-8.424668312E-3
7.700138208E0,-5.640370399E-3
7.710077208E0,1.198898479E-3
7.720016208E0,3.550356254E-3
7.729955208E0,9.103310779E-3
7.739894208E0,5.484542102E-3
7.749833208E0,9.208122119E-3
7.759772208E0,7.299810201E-3
7.769711208E0,2.098858058E-3
7.779650208E0,-9.740730375E-4
7.789588208E0,-2.546316236E-3
7.799527208E0,-2.735473663E-3
7.809466208E0,-8.327969983E-3
7.819405208E0,-1.586912401E-2
7.829344208E0,9.450123757E-3
7.839283208E0,-9.561367035E-3
7.849222208E0,-1.137641586E-2
7.859161208E0,4.206779301E-3
7.869100208E0,-5.511146933E-3
7.879039208E0,2.311842889E-3
7.888978208E0,-1.285488434E-2
7.898917208E0,-1.903933816E-2
7.908855208E0,4.655845463E-5
7.918794208E0,-4.660596326E-3
7.928733208E0,2.954671159E-3
7.938672208E0,-4.413112924E-3
7.948611208E0,3.208951950E-3
7.958550208E0,4.294560626E-3
7.968489208E0,1.422971092E-2
7.978428208E0,4.825049266E-3
7.988367208E0,1.129418939E-2
7.998306208E0,1.286752895E-3
8.008245208E0,1.794086561E-2
8.018184208E0,-6.343132630E-3
8.028122208E0,1.129243523E-3
8.038061208E0,1.463302262E-2
8.048000208E0,-1.450182572E-2
8.057939208E0,-7.379405424E-3
8.067878208E0,2.242553383E-3
8.077817208E0,-1.082319617E-2
8.087756208E0,-8.349823952E-3
8.097695208E0,-1.747294217E-3
8.107634208E0,1.079483718E-2
8.117573208E0,5.162872151E-3
8.127512208E0,4.055190235E-3
8.137451208E0,-1.434139274E-2
8.147389208E0,-5.917162970E-3
8.157328208E0,1.204818785E-3
8.167267208E0,1.767394021E-3
8.177206208E0,-1.184105024E-2
8.187145208E0,1.220606267E-5
8.197084208E0,2.849275097E-3
8.207023208E0,-1.584412716E-2
8.216962208E0,7.958791405E-3
8.226901208E0,-5.338434801E-3
8.236840208E0,4.624416679E-3
8.246779208E0,-2.577964291E-3
8.256718208E0,5.195324197E-3
8.266657208E0,1.111584932E-2
8.276595208E0,1.228251502E-2
8.286534208E0,-9.071004912E-3
8.296473208E0,-8.127045035E-3
8.306412208E0,8.330089599E-4
8.316351208E0,-5.202633217E-3
8.326290208E0,-9.229829907E-4
8.336229208E0,-4.241424054E-3
8.346168208E0,-3.354986161E-3
8.356107208E0,-3.484136537E-3
8.366046208E0,6.018612161E-3
8.375985208E0,1.588476531E-2
8.385924208E0,-4.859767109E-4
8.395862208E0,2.091037408E-3
8.405801083E0,-1.621747188E-2
8.415740083E0,-5.276819766E-3
8.425679083E0,-1.379657842E-2
8.435618083E0,-5.395445153E-3
8.445557083E0,-8.405226320E-3
8.455496083E0,6.759381294E-4
8.465435083E0,4.145968258E-3
8.475374083E0,1.849518165E-2
8.485313083E0,-1.062475629E-2
8.495252083E0,-2.887990974E-2
8.505191083E0,-6.496841311E-3
8.515129083E0,-7.014904618E-3
8.525068083E0,7.775773555E-3
8.535007083E0,-1.224626228E-3
8.544946083E0,-8.424375951E-4
8.554885083E0,-5.157317296E-3
8.564824083E0,9.249052629E-3
8.574763083E0,1.757936150E-2
8.584702083E0,-4.342288524E-4
8.594641083E0,2.428136699E-2
8.604580083E0,5.679400563E-3
8.614519083E0,4.375179112E-3
8.624458083E0,1.156966634E-2
8.634397083E0,-3.857042715E-3
8.644335083E0,2.370022684E-3
8.654274083E0,6.846358627E-3
8.664213083E0,-4.845441431E-3
8.674152083E0,5.316288471E-3
8.684091083E0,-5.999023989E-3
8.694030083E0,6.973316297E-3
8.703969083E0,1.524376430E-2
8.713908083E0,-9.455970973E-3
8.723847083E0,-1.788517088E-3
8.733786083E0,1.555352055E-2
8.743725083E0,-9.112227783E-3
8.753664083E0,1.263254397E-2
8.763603083E0,-4.701965377E-3
8.773541083E0,-1.395196818E-2
8.783480083E0,1.329218298E-2
8.793419083E0,1.255916141E-2
8.803358083E0,-8.784710616E-4
8.813297083E0,-1.452039063E-2
8.823236083E0,1.532189772E-3
8.833175083E0,-3.494149894E-3
8.843114083E0,4.098678902E-3
8.853053083E0,1.252064288E-2
8.862992083E0,3.374281973E-3
8.872931083E0,2.536449060E-3
8.882870083E0,-4.334248602E-5
8.892808083E0,-1.667194672E-2
8.902747083E0,-9.426954165E-3
8.912686083E0,8.115058243E-3
8.922625083E0,-1.846828446E-2
8.932564083E0,-1.665498979E-2
8.942503083E0,-1.832795128E-2
8.952442083E0,6.858783960E-4
8.962381083E0,-3.235556781E-3
8.972320083E0,1.178696349E-2
8.982259083E0,-1.164253727E-2
8.992198083E0,-1.152720094E-2
9.002137083E0,-4.094732031E-3
9.012076083E0,-9.920020625E-3
9.022014083E0,-1.672281750E-2
9.031953083E0,1.188424654E-2
9.041892083E0,-4.323285073E-3
9.051831083E0,8.462309763E-3
9.061770083E0,-5.371910110E-3
9.071709083E0,-7.579818740E-3
9.081648083E0,-1.232958511E-3
9.091587083E0,-1.210176297E-2
9.101526083E0,-7.537791878E-4
9.111465083E0,-3.684330583E-3
9.121404083E0,-3.416235745E-3
9.131343083E0,-1.847018480E-2
9.141282083E0,-1.205988228E-5
9.151220083E0,9.910665080E-3
9.161159083E0,-1.501491889E-3
9.171098083E0,-4.358368367E-4
9.181037083E0,2.445597947E-4
9.190976083E0,-1.275789365E-3
9.200915083E0,-1.457476974E-2
9.210854083E0,-1.916234896E-2
9.220793083E0,-1.145001769E-2
9.230732083E0,1.978851266E-2
9.240671083E0,-5.554854870E-5
9.250610083E0,3.091496006E-3
9.260549083E0,-1.073731519E-2
9.270488083E0,-1.877197422E-2
9.280426083E0,-2.670920402E-2
9.290365083E0,-1.480237260E-2
9.300304083E0,-3.493492082E-3
9.310243083E0,-2.899122611E-3
9.320182083E0,-4.684277549E-3
9.330121083E0,4.780610427E-3
9.340060083E0,-1.151338689E-2
9.349999083E0,1.299002811E-2
9.359938083E0,-1.562668383E-3
9.369877083E0,-1.174793333E-2
9.379816083E0,-2.390707210E-3
9.389755083E0,-1.333903380E-2
9.399694083E0,-3.091276735E-3
9.409633542E0,9.323385358E-4
9.419571542E0,-2.491133139E-3
9.429510542E0,1.151331380E-2
9.439449542E0,-6.178314239E-4
9.449388542E0,-7.520469502E-3
9.459327542E0,6.887289137E-4
9.469266542E0,-1.764689684E-2
9.479205542E0,1.190734304E-2
9.489144542E0,-2.025110051E-3
9.499083542E0,6.908558384E-3
9.509022542E0,-1.088700391E-2
9.518961542E0,-2.865135670E-5
9.528900542E0,-1.440395795E-2
9.538839542E0,-8.225058988E-3
9.548777542E0,-1.622580417E-2
9.558716542E0,-1.368467733E-3
9.568655542E0,-1.867534898E-2
9.578594542E0,-1.574786738E-2
9.588533542E0,-5.739188343E-3
9.598472542E0,1.100270569E-2
9.608411542E0,3.357617408E-3
9.618350542E0,8.623181283E-4
9.628289542E0,-6.412202865E-3
9.638228542E0,-7.323491424E-3
9.648167542E0,-1.066451736E-2
9.658106542E0,-8.392947167E-4
9.668045542E0,6.147543266E-3
9.677984542E0,-6.802065969E-3
9.687922542E0,-1.919692062E-2
9.697861542E0,-1.268151440E-2
9.707800542E0,1.304177597E-2
9.717739542E0,3.606416434E-3
9.727678542E0,-9.971403033E-3
9.737617542E0,-1.560819201E-2
9.747556542E0,-4.729739651E-3
9.757495542E0,7.400820851E-3
9.767434542E0,-1.102222078E-2
9.777373542E0,1.078555472E-2
9.787312542E0,-7.322979793E-3
9.797251542E0,-1.181641884E-2
9.807190542E0,1.318386331E-2
9.817128542E0,-1.045796447E-2
9.827067542E0,-4.272925928E-3
9.837006542E0,5.655500069E-3
9.846945542E0,-1.538650945E-2
9.856884542E0,1.020192951E-3
9.866823542E0,1.502463989E-2
9.876762542E0,9.796278924E-4
9.886701542E0,-3.813115507E-3
9.896640542E0,-1.983192824E-2
9.906579542E0,-6.923030242E-3
9.916518542E0,-2.058146819E-3
9.926457542E0,-6.308414787E-4
9.936396542E0,3.632582724E-3
9.946335542E0,6.480396017E-3
9.956274542E0,7.327219024E-3
9.966212542E0,1.754603237E-3
9.976151542E0,-5.824119151E-3
9.986090542E0,-4.207437113E-3
9.996029542E0,-1.475471780E-3
1.000596854E1,7.974140346E-5
1.001590754E1,-2.259510309E-3
1.002584654E1,-1.170174032E-2
1.003578554E1,8.990313336E-3
1.004572454E1,-4.516974092E-4
1.005566354E1,5.830404907E-4
1.006560254E1,1.271155447E-2
1.007554154E1,-1.977235973E-3
1.008548054E1,-6.769833192E-3
1.009541954E1,1.063893579E-2
1.010535754E1,9.322289005E-3
1.011529654E1,-1.347783208E-4
1.012523554E1,-5.134293884E-3
1.013517454E1,1.520583048E-2
1.014511354E1,9.704769999E-3
1.015505254E1,3.587705344E-3
1.016499154E1,1.359550729E-3
1.017493054E1,-1.022919215E-2
1.018486954E1,-2.274618052E-2
1.019480854E1,-1.163281627E-2
1.020474754E1,-1.571219936E-3
1.021468654E1,-3.299583793E-3
1.022462554E1,4.511711597E-3
1.023456454E1,1.384839937E-3
1.024450254E1,-5.403265804E-3
1.025444154E1,1.081362136E-2
1.026438054E1,-3.372673988E-3
1.027431954E1,4.021422565E-4
1.028425854E1,-1.491778202E-2
1.029419754E1,-1.765157461E-2
1.030413654E1,1.380059838E-2
1.031407554E1,4.762922600E-3
1.032401454E1,-1.259563342E-2
1.033395354E1,-4.807142168E-3
1.034389254E1,2.724802494E-3
1.035383154E1,-5.259351209E-3
1.036377054E1,1.553846397E-2
1.037370954E1,9.887641668E-3
1.038364754E1,1.356385924E-2
1.039358654E1,-3.053196743E-3
1.040352554E1,5.440103263E-3
1.041346446E1,-6.161138043E-3
1.042340346E1,-3.315225095E-3
1.043334246E1,-4.671925306E-4
1.044328146E1,2.123416364E-3
1.045322046E1,-7.221311331E-4
1.046315946E1,1.663247801E-2
1.047309846E1,-2.745706290E-3
1.048303746E1,6.560795233E-3
1.049297646E1,-8.129603192E-3
1.050291546E1,-8.652198091E-3
1.051285446E1,8.811023086E-4
1.052279246E1,-5.447850823E-3
1.053273146E1,1.297570243E-3
1.054267046E1,9.578616321E-3
1.055260946E1,-4.041960910E-3
1.056254846E1,5.104399994E-3
1.057248746E1,-8.835289031E-3
1.058242646E1,-1.560037136E-3
1.059236546E1,-4.865468144E-3
1.060230446E1,-2.861846611E-3
1.061224346E1,-1.416531846E-2
1.062218246E1,-6.759600565E-3
1.063212146E1,-1.004602812E-2
1.064206046E1,-8.991044238E-3
1.065199946E1,-6.508901194E-3
1.066193846E1,-1.831991136E-2
1.067187646E1,1.594535708E-3
1.068181546E1,7.411492020E-3
1.069175446E1,-5.216227993E-3
1.070169346E1,-1.328268126E-3
1.071163246E1,-1.013103202E-3
1.072157146E1,8.946824670E-3
1.073151046E1,-1.272186019E-2
1.074144946E1,-2.508090064E-3
1.075138846E1,-2.411757186E-3
1.076132746E1,1.226197667E-2
1.077126646E1,2.319298089E-3
1.078120546E1,-7.628569901E-3
1.079114446E1,-2.381644025E-3
1.080108346E1,-5.186772645E-3
1.081102246E1,-9.264182299E-3
1.082096046E1,2.328872904E-3
1.083089946E1,-1.938425079E-3
1.084083846E1,8.284042776E-4
1.085077746E1,-2.166188747E-2
1.086071646E1,4.946305901E-3
1.087065546E1,3.435019925E-3
1.088059446E1,1.105854660E-3
1.089053346E1,1.034737900E-2
1.090047246E1,-7.181404084E-3
1.091041146E1,-3.576961085E-3
1.092035046E1,-8.252248541E-3
1.093028946E1,-8.118712753E-3
1.094022846E1,-7.390368953E-3
1.095016746E1,9.318269044E-4
1.096010646E1,-3.179423511E-5
1.097004446E1,-5.875282288E-3
1.097998346E1,-1.324467435E-3
1.098992246E1,3.400228992E-3
1.099986146E1,1.452923454E-2
1.100980046E1,-8.086114526E-3
1.101973946E1,-6.451598480E-3
1.102967846E1,9.597327411E-3
1.103961746E1,1.651326790E-3
1.104955646E1,5.747812986E-4
1.105949546E1,-1.233535923E-2
1.106943446E1,5.394421890E-3
1.107937346E1,1.435491443E-3
1.108931246E1,-1.129389703E-2
1.109925146E1,6.528416276E-4
1.110919046E1,-4.307570681E-3
1.111912846E1,8.324534744E-3
1.112906746E1,-7.209324539E-3
1.113900646E1,-1.366582006E-2
1.114894546E1,4.443152994E-3
1.115888446E1,-3.993794471E-3
1.116882346E1,-9.742338359E-3
1.117876246E1,2.551432550E-3
1.118870146E1,-8.006738573E-3
1.119864046E1,-4.948206246E-3
1.120857946E1,1.327054828E-2
1.121851846E1,-1.458712198E-2
1.122845746E1,-1.499233402E-2
1.123839646E1,1.237877481E-2
1.124833546E1,-3.121609166E-3
1.125827446E1,-4.863275439E-3
1.126821246E1,-2.251616567E-2
1.127815146E1,-6.583818644E-3
1.128809046E1,6.923468783E-3
1.129802946E1,-1.698097207E-2
1.130796846E1,-2.526289523E-3
1.131790746E1,-1.865576081E-2
1.132784646E1,-1.779256560E-2
1.133778546E1,6.413737759E-3
1.134772446E1,-2.301756442E-3
1.135766346E1,-9.340927005E-4
1.136760246E1,-1.336951241E-2
1.137754146E1,-1.885040000E-2
1.138748046E1,1.213297248E-3
1.139741946E1,1.043581814E-2
1.140735829E1,6.938159913E-3
1.141729629E1,-1.850124814E-2
1.142723529E1,-1.933074877E-2
1.143717429E1,-9.795621112E-3
1.144711329E1,-1.346672237E-2
1.145705229E1,2.502096668E-3
1.146699129E1,4.736610129E-3
1.147693029E1,-1.906557754E-3
1.148686929E1,1.487743624E-2
1.149680829E1,6.908558384E-3
1.150674729E1,9.512396604E-3
1.151668629E1,5.097529516E-3
1.152662529E1,-6.679712981E-4
1.153656429E1,-1.210768327E-2
1.154650329E1,6.671746150E-3
1.155644229E1,-3.511472270E-3
1.156638129E1,-1.160124131E-2
1.157631929E1,-6.170274317E-3
1.158625829E1,-1.255821124E-2
1.159619729E1,2.550701648E-3
1.160613629E1,-5.886538178E-3
1.161607529E1,2.997428924E-4
1.162601429E1,1.516913921E-3
1.163595329E1,1.133373119E-2
1.164589229E1,1.175823905E-2
1.165583129E1,-1.312085956E-2
1.166577029E1,1.422642186E-2
1.167570929E1,4.525233284E-3
1.168564829E1,-1.311084621E-2
1.169558729E1,-6.943422407E-3
1.170552629E1,7.753334865E-3
1.171546529E1,8.763953000E-3
1.172540429E1,6.557871625E-3
1.173534229E1,-1.040870167E-2
1.174528129E1,-2.514887452E-3
1.175522029E1,-1.176050484E-2
1.176515929E1,-1.046841636E-2
1.177509829E1,-9.339245930E-3
1.178503729E1,6.035642177E-3
1.179497629E1,-1.109750368E-2
1.180491529E1,-1.659717545E-2
1.181485429E1,7.986931130E-3
1.182479329E1,-8.337617889E-3
1.183473229E1,-7.718105391E-3
1.184467129E1,6.811056063E-3
1.185461029E1,1.542298146E-2
1.186454929E1,-3.196014985E-3
1.187448829E1,-1.399969608E-2
1.188442729E1,-2.618236989E-3
1.189436529E1,-2.005887330E-3
1.190430429E1,1.124858111E-3
1.191424329E1,5.245902613E-3
1.192418229E1,1.728656217E-3
1.193412129E1,-2.608954534E-3
1.194406029E1,3.882697374E-3
1.195399929E1,5.718284547E-3
1.196393829E1,3.282334507E-3
1.197387729E1,-1.820494048E-2
1.198381629E1,-2.157790683E-2
1.199375529E1,-2.958325669E-3
1.200369429E1,-4.458136484E-3
1.201363329E1,-1.744662970E-3
1.202357229E1,-1.177541524E-2
1.203351129E1,-1.696562313E-2
1.204345029E1,-6.013495848E-3
1.205338929E1,-4.230460525E-4
1.206332729E1,3.617672324E-3
1.207326629E1,4.469392374E-3
1.208320529E1,-1.074053116E-2
1.209314429E1,1.616762437E-2
1.210308329E1,-2.335304841E-3
1.211302229E1,5.182167962E-3
1.212296129E1,-8.857069910E-4
1.213290029E1,-1.106183566E-2
1.214283929E1,-9.170188308E-3
1.215277829E1,-7.566297054E-4
1.216271729E1,7.314208969E-3
1.217265629E1,1.379884422E-2
1.218259529E1,1.410165690E-2
1.219253429E1,-8.329651058E-3
1.220247329E1,2.337424457E-4
1.221241229E1,1.017751738E-2
1.222235129E1,2.206593007E-4
1.223228929E1,-1.656954736E-4
1.224222829E1,7.345345393E-3
1.225216729E1,2.089721784E-3
1.226210629E1,-1.453617811E-3
1.227204529E1,-1.070047773E-2
1.228198429E1,-1.799509853E-2
1.229192329E1,-8.758690506E-3
1.230186229E1,7.275032625E-3
1.231180129E1,-2.008226216E-3
1.232174029E1,-1.120114557E-2
1.233167929E1,-4.552715197E-3
1.234161829E1,-1.142567866E-2
1.235155729E1,-1.139424987E-2
1.236149629E1,-1.966126263E-4
1.237143529E1,1.591539010E-3
1.238137429E1,1.400663964E-2
1.239131329E1,-3.177040771E-2
1.240125229E1,-2.937641144E-3
1.241118992E1,-9.573353827E-4
1.242112892E1,-1.781354249E-3
1.243106792E1,-1.404720470E-3
1.244100692E1,-1.545053646E-3
1.245094592E1,-1.164853066E-2
1.246088492E1,1.533432305E-4
1.247082392E1,1.480573475E-2
1.248076292E1,-1.040292755E-3
1.249070192E1,-1.532233626E-2
1.250064092E1,-5.570130721E-3
1.251057992E1,-1.540960595E-3
1.252051892E1,4.782656953E-3
1.253045792E1,-8.553745598E-3
1.254039692E1,-1.041849576E-2
1.255033592E1,1.865481064E-3
1.256027492E1,-8.073396832E-3
1.257021392E1,1.577147551E-2
1.258015292E1,-1.325344518E-2
1.259009092E1,-1.612808257E-2
1.260002992E1,3.711739406E-3
1.260996892E1,-1.171409257E-2
1.261990792E1,5.934704617E-3
1.262984692E1,8.070546314E-3
1.263978592E1,3.756836057E-5
1.264972492E1,8.706723377E-3
1.265966392E1,-5.606091097E-3
1.266960292E1,-1.486661889E-2
1.267954192E1,5.236839429E-3
1.268948092E1,6.449551955E-3
1.269941992E1,-1.167645112E-2
1.270935892E1,-4.744723141E-3
1.271929792E1,-1.197692491E-2
1.272923692E1,-2.637445092E-2
1.273917592E1,-8.198161796E-3
1.274911492E1,-1.507061362E-2
1.275905392E1,-8.939442560E-3
1.276899292E1,8.027496189E-4
1.277893092E1,9.959270060E-3
1.278886992E1,-5.693506971E-3
1.279880892E1,6.457153335E-3
1.280874792E1,-1.408835448E-2
1.281868692E1,-1.670710310E-2
1.282862592E1,8.083775640E-5
1.283856492E1,9.552961662E-3
1.284850392E1,-3.105383143E-3
1.285844292E1,-3.995767906E-3
1.286838192E1,-1.649389900E-2
1.287832092E1,1.550827771E-3
1.288825992E1,-1.473067112E-2
1.289819892E1,-1.108544379E-2
1.290813792E1,-2.702729255E-3
1.291807692E1,-6.097111031E-3
1.292801592E1,-1.225547165E-2
1.293795492E1,-5.421099812E-4
1.294789392E1,-5.132685900E-3
1.295783292E1,-7.127463520E-3
1.296777192E1,-6.007502452E-3
1.297770992E1,-2.780526459E-2
1.298764892E1,-4.944624826E-3
1.299758792E1,1.074593984E-2
1.300752692E1,-6.706756353E-3
1.301746592E1,3.640403375E-3
1.302740492E1,-1.092895769E-2
1.303734392E1,1.103369594E-3
1.304728292E1,-4.848365039E-3
1.305722192E1,-1.095358908E-2
1.306716092E1,-1.462761395E-2
1.307709992E1,-1.351686224E-2
1.308703892E1,-2.426009774E-3
1.309697792E1,-3.569652066E-3
1.310691692E1,-4.077702016E-3
1.311685592E1,-1.454253696E-2
1.312679492E1,1.071648449E-3
1.313673392E1,-1.195148952E-2
1.314667292E1,-5.678962022E-3
1.315661192E1,1.105715789E-2
1.316655092E1,4.072366431E-3
1.317648892E1,-1.285327636E-2
1.318642792E1,-6.251477525E-3
1.319636692E1,2.026425675E-3
1.320630592E1,2.909209058E-3
1.321624492E1,-8.016898111E-3
1.322618392E1,-1.916476093E-2
1.323612292E1,-1.770244539E-4
1.324606192E1,-1.063096896E-2
1.325600092E1,-3.038724884E-3
1.326593992E1,1.107850023E-2
1.327587892E1,1.093093112E-2
1.328581792E1,-1.794240050E-2
1.329575692E1,-7.929774597E-3
1.330569592E1,-4.182220995E-3
1.331563492E1,-2.064235233E-2
1.332557392E1,1.226511955E-2
1.333551292E1,-2.589505233E-2
1.334545192E1,-3.845494464E-3
1.335539092E1,-1.503596887E-2
1.336532992E1,-4.978319407E-3
1.337526892E1,-1.701232776E-2
1.338520692E1,-8.914226443E-3
1.339514592E1,-5.041761696E-4
1.340508492E1,-2.128313407E-2
1.341502479E1,3.558030725E-4
1.342496379E1,-2.671081200E-3
1.343490279E1,5.140652731E-3
1.344484179E1,-5.496894345E-3
1.345478079E1,-1.057154663E-2
1.346471979E1,2.141323462E-3
1.347465879E1,-1.113989599E-2
1.348459779E1,2.487990260E-3
1.349453679E1,-4.810796678E-3
1.350447579E1,-9.004712105E-4
1.351441479E1,2.396115884E-3
1.352435379E1,2.550116926E-4
1.353429279E1,-8.038459718E-4
1.354423179E1,-1.005677238E-2
1.355417079E1,-1.270592652E-2
1.356410979E1,3.904405162E-3
1.357404879E1,-3.745068535E-3
1.358398779E1,-8.541393355E-3
1.359392679E1,-7.257856429E-3
1.360386579E1,4.645174295E-3
1.361380479E1,-8.845960200E-3
1.362374279E1,1.747732759E-3
1.363368179E1,7.362667769E-3
1.364362079E1,3.289058805E-4
1.365355979E1,-1.062804535E-3
1.366349879E1,-8.004911318E-3
1.367343779E1,-2.533160001E-3
1.368337679E1,1.146134667E-2
1.369331579E1,-6.972731575E-3
1.370325479E1,1.451571286E-4
1.371319379E1,4.817228615E-3
1.372313279E1,9.427027255E-3
1.373307179E1,7.510017604E-4
1.374301079E1,-3.833142221E-3
1.375294979E1,1.540741324E-3
1.376288879E1,-3.000937253E-3
1.377282779E1,7.427206412E-3
1.378276679E1,-8.015801758E-3
1.379270579E1,-1.030367106E-2
1.380264479E1,-5.705859214E-3
1.381258379E1,-1.243337318E-3
1.382252279E1,7.186885849E-3
1.383246179E1,-9.933030680E-3
1.384240079E1,-9.392309412E-3
1.385233879E1,-4.146918431E-3
1.386227779E1,-1.372575402E-2
1.387221679E1,-1.211988933E-2
1.388215579E1,-5.036426112E-3
1.389209479E1,-8.066160902E-3
1.390203379E1,-1.389137641E-2
1.391197279E1,-1.781171523E-2
1.392191179E1,-2.945790701E-2
1.393185079E1,-7.992412895E-3
1.394178979E1,-8.489280045E-3
1.395172879E1,4.936511815E-4
1.396166779E1,4.134493098E-3
1.397160679E1,-9.105868936E-3
1.398154579E1,-7.749534175E-3
1.399148479E1,-3.067449331E-3
1.400142379E1,1.056971937E-2
1.401136279E1,-1.539184503E-2
1.402130179E1,7.128706053E-3
1.403124079E1,6.673281044E-3
1.404117979E1,-5.633134469E-3
1.405111879E1,-8.941123635E-4
1.406105779E1,6.928950548E-5
1.407099679E1,-7.249085605E-4
1.408093579E1,-1.718971767E-2
1.409087479E1,-1.251793854E-2
1.410081279E1,-2.006961755E-2
1.411075179E1,-5.371690840E-3
1.412069079E1,-1.029007629E-2
1.413062979E1,5.120918378E-3
1.414056879E1,-5.947203040E-3
1.415050779E1,9.177131876E-3
1.416044679E1,-1.947166666E-2
1.417038579E1,5.056233555E-3
1.418032479E1,-1.896836758E-2
1.419026379E1,2.098638788E-3
1.420020279E1,-5.537313223E-3
1.421014179E1,-1.919129267E-3
1.422008079E1,1.366494298E-2
1.423001979E1,4.653652757E-4
1.423995879E1,2.529827088E-2
1.424989779E1,-8.649347574E-3
1.425983679E1,-5.940332562E-3
1.426977579E1,-1.968245879E-3
1.427971479E1,-1.453164652E-2
1.428965379E1,-9.235969484E-3
1.429959279E1,3.225543424E-3
1.430953179E1,-2.376228042E-2
1.431947079E1,-2.056012586E-2
1.432940979E1,-7.538303509E-3
1.433934879E1,-1.859049127E-3
1.434928779E1,3.169483244E-3
1.435922579E1,-2.252274379E-3
1.436916479E1,8.780032843E-3
1.437910379E1,-6.154925376E-4
1.438904279E1,-1.390460573E-2
1.439898179E1,7.944904268E-4
1.440892079E1,-8.292886689E-3
1.441885892E1,-8.339591324E-5
1.442879792E1,-8.561493158E-3
1.443873692E1,1.939082891E-3
1.444867592E1,1.225167096E-2
1.445861492E1,-8.034659028E-3
1.446855392E1,7.453738153E-4
1.447849292E1,9.495293498E-3
1.448843192E1,-2.027302757E-3
1.449837092E1,-1.148714751E-2
1.450830992E1,-1.310894586E-2
1.451824892E1,-9.278654158E-3
1.452818792E1,1.663934849E-2
1.453812692E1,-2.203888670E-3
1.454806592E1,1.308226794E-2
1.455800492E1,5.079695508E-3
1.456794392E1,-6.950877607E-4
1.457788292E1,-5.329444706E-3
1.458782192E1,3.312009126E-3
1.459776092E1,-1.853691615E-2
1.460769992E1,-5.480741411E-3
1.461763892E1,-7.930724770E-3
1.462757792E1,1.490170218E-2
1.463751592E1,4.349816814E-3
1.464745492E1,-1.035125278E-2
1.465739392E1,5.074067563E-3
1.466733292E1,-6.185550168E-3
1.467727192E1,1.840900831E-2
1.468721092E1,1.603598893E-4
1.469714992E1,-6.404893845E-3
1.470708892E1,-6.777288392E-3
1.471702792E1,-1.406891249E-2
1.472696692E1,-1.047747955E-2
1.473690592E1,-3.891833648E-3
1.474684492E1,1.708702594E-3
1.475678392E1,-1.695129745E-2
1.476672292E1,2.892763764E-3
1.477666192E1,1.311895922E-3
1.478660092E1,-1.011422127E-2
1.479653992E1,-1.367685668E-2
1.480647892E1,1.003747657E-3
1.481641792E1,1.515810259E-2
1.482635692E1,-5.242540464E-3
1.483629592E1,3.182639480E-3
1.484623492E1,4.326427951E-3
1.485617392E1,-5.696722940E-3
1.486611292E1,-1.331995726E-2
1.487605192E1,-4.035090432E-3
1.488599092E1,2.634901553E-3
1.489592992E1,-5.572908148E-3
1.490586892E1,-9.385585114E-3
1.491580792E1,-4.422980100E-3
1.492574692E1,-1.111416824E-2
1.493568492E1,-1.110028110E-2
1.494562392E1,-5.160898715E-3
1.495556292E1,-8.660895824E-3
1.496550192E1,-9.969502687E-4
1.497544092E1,5.157828927E-3
1.498537992E1,-7.994459420E-3
1.499531892E1,1.990684569E-3
1.500525792E1,-8.871687949E-4
1.501519692E1,-9.121437147E-3
1.502513592E1,8.429565355E-3
1.503507492E1,1.163932130E-2
1.504501392E1,-1.673692390E-3
1.505495292E1,-1.021567047E-2
1.506489192E1,-7.337890193E-3
1.507483092E1,-1.340006411E-2
1.508476992E1,5.015449226E-4
1.509470892E1,6.188693047E-3
1.510464792E1,-8.664550334E-3
1.511458692E1,-1.438977845E-2
1.512452592E1,-8.501120657E-3
1.513446492E1,-4.098240361E-3
1.514440392E1,8.925336152E-3
1.515434292E1,5.848750547E-3
1.516428192E1,2.011588365E-3
1.517422092E1,1.540375873E-2
1.518415992E1,9.857674688E-4
1.519409892E1,-3.457970247E-3
1.520403792E1,-1.851623163E-2
1.521397692E1,-8.984685391E-3
1.522391592E1,1.461986639E-2
1.523385492E1,1.934478208E-3
1.524379292E1,1.258057684E-2
1.525373192E1,-8.785514608E-3
1.526367092E1,-7.530994490E-3
1.527360992E1,1.366348118E-2
1.528354892E1,4.539632052E-3
1.529348792E1,-1.315389633E-2
1.530342692E1,-6.787228659E-3
1.531336592E1,-7.639533430E-3
1.532330492E1,-1.028430216E-2
1.533324392E1,-2.462532945E-2
1.534318292E1,-6.352195814E-3
1.535312192E1,2.305630222E-3
1.536306092E1,2.381132394E-3
1.537299992E1,1.099641994E-3
1.538293892E1,6.184599996E-3
1.539287792E1,7.567101046E-3
1.540281692E1,-1.371084362E-2
1.541275646E1,-1.245603114E-2
1.542269546E1,-1.883760922E-2
1.543263446E1,-7.017755136E-3
1.544257346E1,-1.635371201E-2
1.545251246E1,-6.628842205E-3
1.546245146E1,-1.306348376E-2
1.547239046E1,-1.394115083E-2
1.548232946E1,-1.372633874E-3
1.549226846E1,-1.386988789E-2
1.550220746E1,-1.797214821E-3
1.551214646E1,-9.714417905E-4
1.552208546E1,-1.330519304E-2
1.553202446E1,-1.059230424E-2
1.554196346E1,-1.436953247E-3
1.555190246E1,-1.123644814E-2
1.556184146E1,9.359199554E-4
1.557178046E1,-4.017402604E-3
1.558171946E1,1.743201166E-2
1.559165746E1,-2.128971219E-3
1.560159646E1,3.022498861E-3
1.561153546E1,-8.798451573E-3
1.562147446E1,-1.092691116E-2
1.563141346E1,-8.421890885E-3
1.564135246E1,-4.620250538E-3
1.565129146E1,-9.862133190E-3
1.566123046E1,-4.857866764E-3
1.567116946E1,-1.609979667E-2
1.568110846E1,1.285634615E-2
1.569104746E1,1.507843427E-2
1.570098646E1,-1.774593405E-2
1.571092546E1,3.951694518E-3
1.572086446E1,9.541925043E-4
1.573080346E1,-9.595207796E-3
1.574074246E1,9.543240666E-3
1.575068146E1,-1.953181989E-2
1.576062046E1,-1.284194738E-2
1.577055946E1,-1.535968535E-2
1.578049846E1,-1.933272220E-2
1.579043746E1,1.273669749E-2
1.580037646E1,-6.915063411E-4
1.581031546E1,-2.912958585E-2
1.582025446E1,2.991289347E-3
1.583019346E1,-7.479392812E-3
1.584013246E1,1.579332948E-3
1.585007146E1,-1.187182121E-2
1.586001046E1,2.947727591E-3
1.586994946E1,-1.847449712E-2
1.587988846E1,2.897441536E-3
1.588982746E1,-1.430258185E-2
1.589976646E1,4.908591360E-3
1.590970546E1,-5.434329137E-3
1.591964446E1,-9.050247297E-3
1.592958346E1,-7.397093251E-3
1.593952246E1,-1.408572324E-2
1.594946146E1,4.053070620E-3
1.595940046E1,3.541731611E-3
1.596933846E1,8.197065443E-4
1.597927746E1,4.619300365E-4
1.598921646E1,2.320467532E-3
1.599915546E1,1.116788954E-2
1.600909446E1,-1.538468219E-2
1.601903346E1,-2.752065137E-3
1.602897246E1,-3.203835636E-3
1.603891146E1,-1.272456452E-2
1.604885046E1,-7.098592892E-3
1.605878946E1,-8.419917449E-3
1.606872846E1,-2.827274948E-3
1.607866746E1,-1.386813372E-3
1.608860646E1,-9.836843982E-3
1.609854546E1,-1.501959667E-2
1.610848446E1,-9.146287814E-3
1.611842346E1,-6.124081314E-3
1.612836246E1,-1.750729457E-3
1.613830146E1,-7.873568237E-3
1.614824046E1,1.816729903E-3
1.615817946E1,5.109004676E-4
1.616811846E1,-8.599134609E-3
1.617805746E1,-5.167988464E-3
1.618799646E1,-9.047616050E-3
1.619793546E1,-7.737328112E-4
1.620787446E1,-6.137018278E-3
1.621781346E1,1.162514180E-2
1.622775246E1,-8.614410460E-4
1.623769146E1,-1.037683435E-2
1.624763046E1,-1.078526236E-2
1.625756946E1,-6.481419280E-3
1.626750846E1,-1.260067664E-2
1.627744746E1,-1.588710420E-2
1.628738646E1,-6.800750345E-3
1.629732546E1,-9.418768063E-3
1.630726446E1,-1.359360695E-2
1.631720346E1,9.421326220E-4
1.632714246E1,1.438575849E-2
1.633708146E1,-8.445572108E-4
1.634702046E1,-1.197363585E-3
1.635695946E1,-1.048427694E-2
1.636689846E1,-6.654423773E-3
1.637683746E1,-1.800065339E-2
1.638677546E1,-1.321499974E-2
1.639671446E1,-6.959502250E-3
1.640665346E1,-2.016149193E-2
1.641659221E1,-1.074016571E-2
1.642653121E1,2.442360051E-2
1.643647021E1,9.090008363E-3
1.644640921E1,-2.718297467E-3
1.645634821E1,-1.816057473E-2
1.646628721E1,-1.550857008E-2
1.647622621E1,-2.169002719E-2
1.648616521E1,-6.439904049E-3
1.649610421E1,-4.687274247E-4
1.650604321E1,-1.797287911E-3
1.651598221E1,-1.913223580E-2
1.652592121E1,-9.560197592E-5
1.653586021E1,1.640582532E-3
1.654579921E1,-2.397044130E-2
1.655573821E1,-2.332607813E-2
1.656567721E1,-1.506432787E-2
1.657561621E1,-1.129638210E-2
1.658555521E1,2.168586105E-3
1.659549421E1,-1.904862061E-2
1.660543321E1,-1.012036085E-2
1.661537221E1,-4.608556107E-3
1.662531121E1,-1.588476531E-2
1.663525021E1,-1.111277953E-2
1.664518921E1,1.011809506E-2
1.665512821E1,-1.214210875E-2
1.666506721E1,1.096082501E-2
1.667500621E1,-2.288892567E-3
1.668494521E1,-5.573858321E-3
1.669488421E1,5.074067563E-3
1.670482321E1,-1.372136861E-2
1.671476221E1,-1.832466222E-2
1.672470121E1,-1.251311459E-2
1.673464021E1,-7.509579062E-3
1.674457921E1,-9.039283767E-3
1.675451821E1,1.234127954E-3
1.676445721E1,-9.168214872E-3
1.677439621E1,-1.857265726E-2
1.678433521E1,-1.257151365E-4
1.679427421E1,-8.243843168E-3
1.680421321E1,-1.692644678E-2
1.681415221E1,-1.907208256E-2
1.682409121E1,-1.062263668E-2
1.683403021E1,-6.872598007E-3
1.684396821E1,-5.263517350E-3
1.685390821E1,2.868790179E-4
1.686384621E1,5.067343265E-4
1.687378521E1,-6.563572660E-3
1.688372421E1,-1.550740063E-2
1.689366321E1,-1.131933242E-2
1.690360221E1,-2.821573913E-3
1.691354121E1,-1.317962408E-2
1.692348021E1,1.235494740E-2
1.693341921E1,-7.247550711E-3
1.694335821E1,-8.965828121E-3
1.695329721E1,-7.640629783E-3
1.696323621E1,-1.909992993E-2
1.697317521E1,-2.471091807E-2
1.698311421E1,-1.696006827E-2
1.699305321E1,-8.847714365E-3
1.700299221E1,-2.638928823E-2
1.701293121E1,-5.657181144E-4
1.702287021E1,-1.545996509E-2
1.703280921E1,4.027123600E-3
1.704274821E1,-1.146361247E-2
1.705268721E1,-6.078326851E-3
1.706262621E1,4.435259253E-3
1.707256521E1,-7.975602150E-3
1.708250421E1,-2.132844999E-3
1.709244321E1,-2.619333342E-3
1.710238221E1,-1.078803979E-2
1.711232121E1,-5.534097254E-3
1.712226021E1,-6.671088338E-3
1.713219921E1,-5.446827561E-3
1.714213821E1,1.672179423E-2
1.715207721E1,3.558030725E-4
1.716201621E1,-4.729885831E-3
1.717195521E1,-4.705400616E-3
1.718189421E1,-7.859827280E-3
1.719183321E1,-2.083845332E-2
1.720177221E1,-3.206028342E-3
1.721171121E1,-1.154817782E-2
1.722165021E1,-1.670001335E-2
1.723158921E1,-4.981096834E-4
1.724152821E1,-3.108379841E-3
1.725146721E1,-2.094721153E-2
1.726140621E1,-2.151431836E-2
1.727134521E1,-3.935541585E-3
1.728128421E1,-7.378674522E-3
1.729122321E1,-8.089842126E-3
1.730116221E1,-1.278771445E-2
1.731110121E1,-3.120527431E-2
1.732104021E1,-1.128264114E-2
1.733097921E1,-2.966438681E-3
1.734091821E1,-1.895813495E-3
1.735085721E1,-7.885043398E-3
1.736079621E1,-9.844883904E-3
1.737073521E1,-9.849123135E-3
1.738067421E1,-1.499533072E-2
1.739061321E1,-1.144051597E-2
1.740055121E1,-1.103800826E-2
1.741049021E1,-2.703387067E-3
1.742042942E1,-7.595533133E-4
1.743036842E1,-1.683501095E-2
1.744030742E1,-9.718730226E-3
1.745024642E1,-2.646011263E-3
1.746018542E1,-8.662503809E-3
1.747012442E1,3.475877345E-3
1.748006342E1,-2.858703732E-3
1.749000242E1,-2.188766308E-2
1.749994142E1,-3.161129035E-2
1.750988042E1,-2.389099225E-3
1.751981942E1,-1.033341877E-2
1.752975842E1,-2.514887452E-3
1.753969742E1,-1.413725182E-2
1.754963642E1,-2.002393618E-2
1.755957542E1,-2.026856907E-2
1.756951442E1,-8.480655402E-3
1.757945342E1,-1.205505833E-2
1.758939242E1,-1.449042365E-2
1.759933142E1,-9.887714759E-3
1.760927042E1,-7.140181214E-4
1.761920942E1,-9.525625929E-3
1.762914842E1,-6.634470150E-3
1.763908742E1,-1.953401260E-2
1.764902642E1,-6.112459973E-3
1.765896542E1,-8.688231558E-3
1.766890442E1,-8.316933364E-4
1.767884342E1,6.352561265E-3
1.768878242E1,-2.602595687E-3
1.769872142E1,1.198313758E-3
1.770866042E1,6.884292439E-3
1.771859942E1,-5.111197382E-4
1.772853842E1,-1.306092560E-2
1.773847742E1,1.151894175E-2
1.774841642E1,-9.831581488E-3
1.775835542E1,7.381451949E-3
1.776829442E1,-1.097039983E-2
1.777823342E1,-1.252744026E-2
1.778817242E1,-4.270587042E-3
1.779811142E1,5.659081489E-3
1.780805042E1,-1.684458576E-2
1.781798942E1,-1.258657023E-2
1.782792842E1,6.806012839E-3
1.783786742E1,-6.108147651E-3
1.784780642E1,-1.206697203E-2
1.785774542E1,2.093010843E-3
1.786768442E1,-2.615854248E-2
1.787762342E1,-3.084077351E-2
1.788756242E1,-1.507682629E-2
1.789750142E1,-1.515737168E-2
1.790744042E1,-8.379790932E-4
1.791737942E1,1.174340174E-3
1.792731842E1,-2.577014118E-3
1.793725742E1,-2.004864067E-4
1.794719642E1,-1.185647227E-2
1.795713542E1,-4.103795215E-3
1.796707442E1,-5.523060635E-3
1.797701342E1,-1.571746185E-2
1.798695242E1,-2.777427435E-6
1.799689142E1,-6.375803947E-3
1.800683042E1,4.575738609E-3
1.801676942E1,-7.359159440E-3
1.802670842E1,-8.470642045E-3
1.803664742E1,2.762736306E-3
1.804658642E1,-2.033069573E-2
1.805652542E1,-4.830969572E-3
1.806646442E1,-6.465412527E-3
1.807640342E1,6.706756353E-4
1.808634242E1,-1.579471819E-2
1.809628142E1,4.540509135E-3
1.810621942E1,-8.362249285E-4
1.811615942E1,-2.366602063E-2
1.812609842E1,-5.758045614E-3
1.813603642E1,-4.187264219E-3
1.814597542E1,-1.756233148E-2
1.815591442E1,-6.453864276E-3
1.816585342E1,-7.799966410E-3
1.817579242E1,-4.087934643E-4
1.818573142E1,-8.553160876E-3
1.819567042E1,-8.299830258E-3
1.820560942E1,-8.540297002E-3
1.821554842E1,1.423870102E-3
1.822548742E1,-1.568902977E-2
1.823542642E1,-1.914027572E-2
1.824536542E1,-1.240808398E-2
1.825530442E1,-1.223610274E-2
1.826524342E1,-1.600273289E-2
1.827518242E1,-7.565419972E-3
1.828512142E1,-1.053894840E-2
1.829506042E1,-8.375844061E-3
1.830499942E1,-1.699639410E-2
1.831493842E1,-2.138626434E-2
1.832487742E1,-6.512774974E-3
1.833481642E1,2.475711107E-3
1.834475542E1,-1.999309212E-3
1.835469442E1,-3.462574929E-3
1.836463342E1,-1.755509555E-2
1.837457242E1,-1.866350837E-2
1.838451142E1,-1.263831809E-2
1.839445042E1,-1.450833075E-2
1.840438942E1,6.470601931E-3
1.841432817E1,-5.614569560E-3
1.842426717E1,-1.345670901E-2
1.843420617E1,-3.317388564E-2
1.844414517E1,-9.902552068E-3
1.845408417E1,2.274201438E-3
1.846402317E1,-8.145244494E-3
1.847396217E1,1.637074202E-3
1.848390117E1,-2.268573493E-3
1.849384017E1,-6.178314239E-4
1.850377917E1,-6.901541725E-3
1.851371817E1,6.616855413E-4
1.852365717E1,1.315769702E-3
1.853359617E1,-2.031242318E-2
1.854353517E1,-1.524369121E-2
1.855347417E1,1.020185642E-2
1.856341317E1,-1.016765021E-2
1.857335217E1,-7.181404084E-3
1.858329117E1,-1.455211177E-2
1.859323017E1,-1.788334362E-2
1.860316917E1,-3.732862473E-3
1.861310817E1,-1.785944313E-2
1.862304717E1,-2.099588960E-2
1.863298617E1,-9.367604926E-3
1.864292517E1,-7.372608036E-3
1.865286417E1,-1.121481344E-2
1.866280317E1,2.839115560E-3
1.867274217E1,-1.015551724E-2
1.868268117E1,-5.663466901E-3
1.869262017E1,-1.312159047E-2
1.870255917E1,-4.465884045E-3
1.871249817E1,-7.322321981E-3
1.872243717E1,-8.806272224E-3
1.873237617E1,5.085615814E-4
1.874231517E1,2.590170354E-3
1.875225417E1,-2.491272010E-2
1.876219317E1,-1.962603316E-2
1.877213217E1,-1.979933001E-2
1.878207117E1,1.266433820E-3
1.879201017E1,-2.560495734E-3
1.880194917E1,-1.662714243E-2
1.881188817E1,4.994472340E-3
1.882182717E1,-1.376412638E-2
1.883176617E1,-7.787760347E-3
1.884170517E1,3.541731611E-3
1.885164417E1,-1.190792777E-2
1.886158317E1,3.071176931E-3
1.887152217E1,-1.393077202E-2
1.888146117E1,-4.409092963E-3
1.889140017E1,-5.006532222E-3
1.890133917E1,6.356654316E-3
1.891127817E1,-4.531665221E-3
1.892121717E1,8.466037363E-3
1.893115617E1,-1.806402259E-2
1.894109517E1,-1.062709518E-2
1.895103417E1,-7.881023437E-3
1.896097317E1,-2.278681867E-2
1.897091217E1,-7.736816481E-3
1.898085117E1,-3.407830372E-3
1.899079017E1,-1.373408630E-2
1.900072917E1,-8.685673401E-3
1.901066817E1,4.724330977E-3
1.902060717E1,7.954186723E-3
1.903054617E1,-1.622302674E-2
1.904048517E1,6.515406221E-3
1.905042417E1,-1.110218145E-2
1.906036317E1,-2.953048557E-2
1.907030217E1,-3.254033983E-2
1.908024117E1,-4.989721477E-3
1.909018017E1,2.985734493E-3
1.910011917E1,-1.016618840E-2
1.911005817E1,-8.306700736E-3
1.911999717E1,-6.027090624E-3
1.912993617E1,-3.467910513E-3
1.913987517E1,-1.202947676E-2
1.914981417E1,-1.122497298E-2
1.915975317E1,1.044217698E-2
1.916969217E1,-1.173828542E-2
1.917963117E1,-4.763945863E-3
1.918957017E1,-8.404568508E-3
1.919950917E1,1.281636581E-3
1.920944817E1,-1.576314323E-2
1.921938717E1,-1.317618884E-2
1.922932517E1,-1.301758312E-2
1.923926517E1,-2.423246965E-2
1.924920317E1,-1.960279047E-3
1.925914217E1,-4.373790398E-3
1.926908217E1,-1.544805139E-2
1.927902117E1,-6.455252990E-3
1.928895917E1,-1.269167393E-2
1.929889817E1,-1.635020368E-2
1.930883717E1,-8.883894011E-3
1.931877617E1,-2.007656112E-2
1.932871517E1,-1.386374831E-3
1.933865417E1,-6.766690314E-3
1.934859317E1,4.657891989E-3
1.935853217E1,-2.196353070E-2
1.936847117E1,-1.681732312E-2
1.937841017E1,-6.725759804E-3
1.938834917E1,-1.206280589E-3
1.939828817E1,-1.102419421E-2
1.940822717E1,-2.260774769E-2
1.941816642E1,-5.738091990E-3
1.942810542E1,-4.845879972E-4
1.943804442E1,-1.674233258E-2
1.944798342E1,-2.560905039E-2
1.945792242E1,-1.424527913E-4
1.946786142E1,7.386495173E-3
1.947780042E1,-1.388991460E-2
1.948773942E1,-2.050318860E-2
1.949767842E1,-5.938359126E-3
1.950761742E1,-1.133263484E-3
1.951755642E1,-1.395613432E-2
1.952749542E1,-7.635221109E-3
1.953743442E1,-1.547699511E-2
1.954737342E1,6.821654141E-3
1.955731242E1,-1.312137119E-2
1.956725142E1,-7.371146232E-4
1.957719042E1,-1.469054461E-2
1.958712942E1,-8.779594302E-4
1.959706842E1,1.689626053E-3
1.960700742E1,-3.338833228E-3
1.961694642E1,1.060977280E-3
1.962688542E1,-1.405444063E-2
1.963682442E1,-1.601201534E-2
1.964676342E1,-1.997379631E-2
1.965670242E1,-5.859421715E-3
1.966664142E1,-5.917236060E-3
1.967658042E1,-1.009222113E-2
1.968651942E1,4.178054854E-3
1.969645842E1,-7.894472033E-3
1.970639742E1,4.049416110E-3
1.971633642E1,-5.333391577E-3
1.972627542E1,3.469079956E-3
1.973621442E1,-5.727274641E-3
1.974615342E1,-1.145535327E-2
1.975609242E1,1.202713788E-2
1.976603142E1,-1.437939964E-2
1.977597042E1,-1.384284452E-2
1.978590942E1,3.170652688E-3
1.979584842E1,-5.099283680E-3
1.980578742E1,-1.408681959E-2
1.981572642E1,1.412606902E-2
1.982566542E1,6.950219795E-3
1.983560442E1,-8.307066187E-3
1.984554342E1,-1.244404435E-2
1.985548242E1,-2.702904671E-2
1.986542142E1,-8.870445415E-3
1.987536042E1,-7.630616426E-5
1.988529942E1,6.462635100E-3
1.989523842E1,-1.912178390E-2
1.990517742E1,-9.495878220E-4
1.991511642E1,1.901441440E-3
1.992505542E1,-3.221742734E-3
1.993499442E1,-7.425817698E-3
1.994493342E1,2.872883230E-3
1.995487242E1,-4.390016422E-3
1.996481142E1,-1.217097938E-2
1.997475042E1,-1.850928806E-2
1.998468942E1,-1.784117058E-2
1.999462842E1,-2.189292558E-2
2.000456742E1,-1.703717843E-2
2.001450642E1,-7.537572607E-3
2.002444542E1,-2.819819748E-4
2.003438442E1,-1.254373938E-2
2.004432342E1,3.263623416E-3
2.005426242E1,-5.995296389E-3
2.006420142E1,-2.097169675E-2
2.007414042E1,-1.026054785E-2
2.008407942E1,7.375897095E-3
2.009401842E1,-1.287973501E-2
2.010395742E1,-2.620246969E-2
2.011389642E1,-9.227271751E-3
2.012383542E1,-8.669593558E-3
2.013377442E1,-1.063820489E-2
2.014371342E1,-7.833149359E-3
2.015365242E1,-3.300314695E-3
2.016359142E1,-5.000904277E-3
2.017353042E1,-7.858292386E-3
2.018346942E1,-1.107353009E-2
2.019340842E1,-1.610695951E-2
2.020334742E1,5.576928109E-3
2.021328642E1,-2.330342017E-2
2.022322542E1,-3.127675653E-3
2.023316442E1,-1.364652425E-2
2.024310342E1,-7.503439486E-3
2.025304242E1,-1.216608234E-2
2.026298142E1,-2.266088426E-3
2.027292042E1,-3.361271918E-3
2.028285942E1,7.587639391E-3
2.029279842E1,5.206580088E-3
2.030273742E1,-5.865415111E-3
2.031267642E1,7.793607563E-4
2.032261542E1,-1.672968797E-2
2.033255442E1,-5.774125457E-5
2.034249342E1,-1.142056234E-2
2.035243242E1,-8.204593733E-3
2.036237142E1,-6.885534972E-3
2.037231042E1,-1.473235220E-2
2.038224942E1,-1.277243860E-2
2.039218842E1,-8.686258122E-3
2.040212742E1,-1.067993939E-2
2.041206642E1,-1.288397424E-2
2.042200633E1,-2.292466678E-2
2.043194533E1,-9.978346601E-3
2.044188433E1,-9.604782611E-4
2.045182333E1,-2.011975743E-2
2.046176233E1,1.936159283E-4
2.047170133E1,1.295304447E-3
2.048164033E1,-1.186977468E-2
2.049157933E1,-2.221700750E-2
2.050151833E1,-1.715390347E-2
2.051145733E1,-1.298052639E-2
2.052139633E1,-1.191428661E-2
2.053133533E1,-1.712188996E-2
2.054127433E1,1.042631641E-3
2.055121333E1,-6.736796424E-3
2.056115233E1,-7.017024234E-3
2.057109133E1,-1.464369379E-2
2.058103033E1,-9.009755328E-3
2.059096933E1,-5.240274668E-3
2.060090833E1,2.732403874E-3
2.061084733E1,-1.245734677E-2
2.062078633E1,-5.633134469E-3
2.063072533E1,-6.829474792E-3
2.064066433E1,-1.838605799E-2
2.065060333E1,-1.988842696E-2
2.066054233E1,-2.672323734E-3
2.067048133E1,-8.538615927E-3
2.068042033E1,-7.663141564E-3
2.069035933E1,1.219933838E-2
2.070029833E1,-1.669628575E-2
2.071023733E1,7.491233423E-3
2.072017633E1,-7.226866186E-3
2.073011533E1,-1.750744075E-2
2.074005433E1,-1.142348595E-2
2.074999333E1,-4.584801793E-3
2.075993233E1,-1.418753788E-2
2.076987133E1,-1.225400984E-2
2.077981033E1,6.754703522E-3
2.078974933E1,-9.560343772E-3
2.079968833E1,-1.512491964E-2
2.080962733E1,-1.370009936E-2
2.081956633E1,-8.424595222E-3
2.082950533E1,1.252539374E-2
2.083944433E1,1.433437608E-2
2.084938333E1,-4.966332614E-3
2.085932233E1,4.628071189E-4
2.086926133E1,-1.215387627E-2
2.087920033E1,-9.253291860E-3
2.088913933E1,-7.692889273E-3
2.089907833E1,-2.103060745E-2
2.090901733E1,3.270640075E-3
2.091895633E1,-1.402513146E-2
2.092889533E1,-1.319804281E-2
2.093883433E1,-1.534433641E-2
2.094877333E1,-1.826816350E-3
2.095871233E1,1.738669574E-3
2.096865133E1,-4.697287604E-3
2.097859033E1,-1.665433198E-2
2.098852933E1,-1.566907614E-3
2.099846833E1,3.465937078E-3
2.100840733E1,-9.570137858E-3
2.101834633E1,9.970014319E-3
2.102828533E1,-1.062804535E-2
2.103822433E1,-6.438003704E-3
2.104816333E1,-2.146001235E-3
2.105810233E1,8.924093619E-3
2.106804133E1,-9.152208120E-3
2.107798033E1,-3.935907036E-3
2.108791933E1,-1.441477530E-2
2.109785833E1,1.989880577E-3
2.110779733E1,-1.748829111E-3
2.111773633E1,-1.017488614E-2
2.112767533E1,-1.952648431E-2
2.113761433E1,2.105070725E-3
2.114755333E1,-3.929328918E-4
2.115749233E1,-8.828710914E-3
2.116743133E1,-1.575166807E-2
2.117737033E1,-1.102521747E-2
2.118730933E1,-8.286016211E-3
2.119724833E1,-1.069791958E-2
2.120718733E1,-1.039832287E-2
2.121712633E1,-4.677699432E-3
2.122706533E1,1.828219682E-2
2.123700433E1,-1.525896706E-2
2.124694333E1,3.704357296E-3
2.125688233E1,1.189177483E-3
2.126682133E1,-3.314421102E-3
2.127676033E1,-9.174500629E-3
2.128669933E1,-1.475150183E-2
2.129663833E1,-2.787565045E-2
2.130657733E1,1.505095236E-2
2.131651633E1,1.472548172E-2
2.132645533E1,-9.503187239E-4
2.133639433E1,-1.691796832E-2
2.134633333E1,-1.472036541E-2
2.135627233E1,-2.249599278E-2
2.136621133E1,7.904631570E-3
2.137615033E1,1.098764911E-2
2.138608933E1,1.784424037E-3
2.139602833E1,-8.352966830E-3
2.140596733E1,-1.152566604E-2
2.141590633E1,-2.119250223E-2
2.142584492E1,-1.807812899E-3
2.143578392E1,-9.143948928E-3
2.144572292E1,-7.653347477E-3
2.145566192E1,-3.136358768E-2
2.146560092E1,-1.080295019E-2
2.147553992E1,-9.702431113E-3
2.148547892E1,-6.699520424E-3
2.149541792E1,-2.300192311E-2
2.150535692E1,-4.000957310E-4
2.151529592E1,-1.155994534E-3
2.152523492E1,-5.957508758E-3
2.153517392E1,-3.926259130E-3
2.154511292E1,-1.285049893E-2
2.155505192E1,-1.138672158E-3
2.156499092E1,1.079534881E-2
2.157492992E1,1.021165051E-2
2.158486892E1,-1.056555323E-2
2.159480792E1,-7.400967032E-3
2.160474692E1,-1.018409550E-2
2.161468592E1,1.331337914E-2
2.162462492E1,-1.579990759E-2
2.163456392E1,-1.525297366E-2
2.164450292E1,-1.682039291E-2
2.165444192E1,3.493565172E-3
2.166438092E1,-1.611222200E-2
2.167431992E1,-8.867229447E-3
2.168425892E1,-1.871028610E-2
2.169419792E1,-5.841368437E-3
2.170413692E1,-2.273368210E-2
2.171407592E1,1.052425727E-3
2.172401492E1,1.803427488E-3
2.173395392E1,-1.671178088E-2
2.174389292E1,-1.312553734E-3
2.175383192E1,-1.320520565E-3
2.176377092E1,-1.938666277E-2
2.177370992E1,-1.998724490E-3
2.178364892E1,-2.835972682E-3
2.179358792E1,-1.672669128E-3
2.180352692E1,-2.004425526E-3
2.181346592E1,-2.388441414E-3
2.182340492E1,-6.139868796E-3
2.183334392E1,-1.068249755E-2
2.184328392E1,-2.549312934E-3
2.185322292E1,1.022385657E-3
2.186316192E1,-6.134533212E-3
2.187310092E1,1.581891105E-3
2.188303992E1,-2.309650183E-4
2.189297892E1,-1.234595731E-2
2.190291792E1,-9.443764910E-3
2.191285692E1,-1.040015012E-2
2.192279592E1,-2.682198219E-2
2.193273492E1,-2.080790162E-2
2.194267392E1,-2.112365127E-2
2.195261292E1,-1.456124805E-2
2.196255192E1,-3.399425000E-3
2.197249092E1,-1.797361001E-3
2.198242992E1,-5.651480108E-3
2.199236892E1,-1.587445959E-2
2.200230792E1,-9.718145505E-3
2.201224692E1,-9.722384736E-3
2.202218592E1,-1.766765445E-2
2.203212492E1,-4.486787841E-3
2.204206392E1,-1.829367198E-2
2.205200292E1,-7.231982499E-3
2.206194192E1,-6.453864276E-4
2.207188092E1,1.018658057E-3
2.208181992E1,-1.216542453E-2
2.209175892E1,-1.354478270E-2
2.210169792E1,-1.693770267E-2
2.211163692E1,-4.980585203E-3
2.212157592E1,-7.246161997E-3
2.213151492E1,-1.838759288E-2
2.214145392E1,-1.302006818E-2
2.215139292E1,-1.641956627E-2
2.216133192E1,-1.360223159E-2
2.217127092E1,7.155530155E-3
2.218120992E1,-3.659114465E-3
2.219114892E1,-9.162660018E-3
2.220108792E1,-1.928353250E-2
2.221102692E1,-7.526097447E-3
2.222096592E1,-1.117037460E-2
2.223090492E1,-1.348112114E-2
2.224084392E1,-1.224991679E-3
2.225078292E1,-2.329333372E-2
2.226072192E1,-1.240355238E-2
2.227066092E1,-6.008818075E-3
2.228059992E1,4.690051675E-3
2.229053892E1,-1.234025627E-2
2.230047792E1,-1.131428920E-2
2.231041692E1,-1.325636879E-3
2.232035592E1,3.969528526E-3
2.233029492E1,-2.586830132E-2
2.234023392E1,-8.984612301E-3
2.235017292E1,-5.615300462E-3
2.236011192E1,-5.537824854E-3
2.237005092E1,-9.745335057E-3
2.237998992E1,4.685081542E-5
2.238992892E1,-1.367619887E-2
2.239986792E1,7.704364434E-3
2.240980692E1,-3.030319512E-4
2.241974533E1,-6.014226750E-3
2.242968433E1,-1.646919452E-2
2.243962333E1,5.413059890E-3
2.244956233E1,-3.822617233E-4
2.245950133E1,-9.144460559E-3
2.246944033E1,-9.129403979E-3
2.247937933E1,-4.180101380E-3
2.248931833E1,-1.804428823E-2
2.249925733E1,-1.124938510E-2
2.250919633E1,-1.744370610E-2
2.251913533E1,-3.069276586E-3
2.252907433E1,7.861215994E-3
2.253901333E1,-1.730520017E-2
2.254895233E1,-2.165786751E-2
2.255889133E1,-2.946170770E-2
2.256883033E1,4.932711124E-3
2.257876933E1,-4.234699756E-3
2.258870833E1,-4.899966717E-4
2.259864733E1,-1.071063727E-2
2.260858633E1,-7.333943322E-3
2.261852533E1,6.046240255E-3
2.262846433E1,-1.328735903E-2
2.263840333E1,-1.504313171E-2
2.264834233E1,-9.128526896E-3
2.265828133E1,-2.212147862E-3
2.266822033E1,6.282760128E-3
2.267815933E1,-7.678490505E-3
2.268809833E1,-2.192325801E-2
2.269803733E1,-1.345151961E-3
2.270797633E1,-1.026018240E-2
2.271791533E1,-7.983568981E-3
2.272785433E1,-2.442674339E-4
2.273779333E1,-1.572425924E-2
2.274773233E1,-1.488956921E-2
2.275767133E1,-1.132050186E-2
2.276761033E1,-1.684063889E-2
2.277754933E1,-1.011173621E-2
2.278748833E1,9.111058339E-3
2.279742733E1,-6.695500463E-3
2.280736633E1,6.544423029E-3
2.281730533E1,-5.122745633E-3
2.282724433E1,-3.127222493E-2
2.283718333E1,-4.830969572E-3
2.284712233E1,-2.614582479E-3
2.285706133E1,-9.154547006E-4
2.286700033E1,-8.635387346E-3
2.287693933E1,3.970405608E-3
2.288687833E1,-3.278095275E-4
2.289681733E1,-6.208354309E-3
2.290675633E1,-2.405288704E-2
2.291669533E1,-5.605287105E-3
2.292663433E1,5.969787911E-3
2.293657333E1,-1.396402806E-2
2.294651333E1,5.403265804E-3
2.295645233E1,-1.975627989E-3
2.296639133E1,-1.302796192E-2
2.297633033E1,-1.488182165E-2
2.298626933E1,-5.064273477E-3
2.299620833E1,-1.408667341E-3
2.300614733E1,-1.573631912E-2
2.301608633E1,-1.381923638E-2
2.302602533E1,-5.782603920E-3
2.303596433E1,-2.035715438E-2
2.304590333E1,7.805375084E-3
2.305584233E1,-9.755421504E-3
2.306578133E1,-6.752803177E-4
2.307572033E1,-1.739276223E-2
2.308565933E1,-3.927647844E-3
2.309559833E1,-1.319570392E-3
2.310553733E1,-1.091397420E-2
2.311547633E1,-2.136857651E-2
2.312541533E1,2.036877573E-3
2.313535433E1,-1.714842170E-3
2.314529333E1,-9.286547899E-3
2.315523233E1,1.277835891E-3
2.316517133E1,-1.964291699E-2
2.317511033E1,-1.858690985E-2
2.318504933E1,-4.064618871E-3
2.319498833E1,-1.196771555E-2
2.320492733E1,3.009854257E-4
2.321486633E1,-1.070990637E-2
2.322480533E1,-1.653300226E-3
2.323474433E1,-6.708802879E-3
2.324468333E1,-6.408329085E-3
2.325462233E1,4.202028438E-3
2.326456133E1,-4.489930719E-3
2.327450033E1,-1.901858054E-2
2.328443933E1,-1.491522387E-2
2.329437833E1,-2.243583955E-2
2.330431733E1,4.955515265E-3
2.331425633E1,2.468328997E-3
2.332419533E1,7.798723876E-4
2.333413433E1,-1.484673835E-2
2.334407333E1,-4.472827613E-3
2.335401233E1,-4.437598139E-3
2.336395133E1,1.737280861E-3
2.337389033E1,2.519272864E-3
2.338382933E1,1.260111518E-2
2.339376833E1,-1.158084914E-2
2.340370733E1,-9.659088627E-3
2.341364633E1,-9.471758455E-3
2.342358546E1,-7.649400607E-3
2.343352446E1,-9.709009230E-3
2.344346346E1,-1.453361996E-2
2.345340246E1,-6.588277146E-3
2.346334146E1,-3.462282568E-3
2.347328046E1,-2.809696756E-2
2.348321946E1,-2.334413141E-2
2.349315846E1,4.028731585E-3
2.350309746E1,-1.312180974E-2
2.351303646E1,-1.558209881E-3
2.352297546E1,-1.209277287E-3
2.353291446E1,-1.385943599E-2
2.354285346E1,-6.103762239E-3
2.355279246E1,-5.291437805E-3
2.356273146E1,-3.579226881E-3
2.357267046E1,-1.036272794E-2
2.358260946E1,-1.406555034E-2
2.359254846E1,3.621838465E-3
2.360248746E1,-8.883820921E-3
2.361242646E1,-9.322435185E-3
2.362236546E1,-1.032413632E-2
2.363230446E1,-2.793726549E-3
2.364224346E1,-1.503582269E-2
2.365218246E1,-1.620672762E-2
2.366212246E1,-1.280861825E-2
2.367206146E1,-5.307810009E-4
2.368200046E1,-2.458461821E-3
2.369193946E1,-1.591195486E-2
2.370187846E1,-1.762401961E-2
2.371181746E1,-6.672184691E-3
2.372175646E1,1.008250013E-2
2.373169546E1,-4.337683842E-3
2.374163446E1,-1.586890474E-2
2.375157346E1,-3.685207665E-4
2.376151246E1,2.993774414E-3
2.377145146E1,-1.624685414E-2
2.378139046E1,-1.066159375E-2
2.379132946E1,-1.925261535E-2
2.380126846E1,-7.104001567E-3
2.381120746E1,-5.012233257E-3
2.382114646E1,-5.598197356E-3
2.383108546E1,1.298125729E-2
2.384102446E1,-2.199335150E-2
2.385096346E1,2.487770990E-3
2.386090246E1,-1.991196200E-3
2.387084146E1,-6.437053531E-3
2.388078046E1,-9.418110251E-3
2.389071946E1,8.197138533E-3
2.390065846E1,-1.476056501E-3
2.391059746E1,-1.114559703E-2
2.392053646E1,-2.015981086E-2
2.393047546E1,-1.169055752E-2
2.394041446E1,-7.592609525E-4
2.395035346E1,-7.465651855E-3
2.396029246E1,-1.688420065E-2
2.397023146E1,-5.722377598E-3
2.398017046E1,3.170945048E-3
2.399010946E1,-6.303298473E-4
2.400004846E1,2.943342179E-3
2.400998746E1,-5.477671623E-3
2.401992646E1,-1.629377805E-2
2.402986546E1,1.112206198E-2
2.403980446E1,-6.589373499E-3
2.404974346E1,-4.765992388E-3
2.405968246E1,-1.391644634E-2
2.406962146E1,-1.718350500E-3
2.407956046E1,-6.355411783E-3
2.408949946E1,-7.720298097E-3
2.409943846E1,-8.927894309E-3
2.410937746E1,-1.220313907E-2
2.411931646E1,1.112155035E-2
2.412925546E1,-1.679539606E-2
2.413919446E1,-3.125482947E-2
2.414913346E1,-1.995800883E-3
2.415907246E1,-6.289630607E-3
2.416901146E1,-1.346979216E-2
2.417895046E1,1.261573322E-2
2.418888946E1,9.940266609E-5
2.419882846E1,-4.192599803E-3
2.420876746E1,-2.430921435E-2
2.421870646E1,-5.024658591E-3
2.422864546E1,-2.284616791E-2
2.423858546E1,-2.130038336E-2
2.424852446E1,-2.226261579E-2
2.425846346E1,-2.345976010E-3
2.426840246E1,1.453033090E-4
2.427834146E1,-1.062534101E-2
2.428828046E1,-1.853413872E-2
2.429821946E1,-2.494056746E-3
2.430815846E1,-1.425916627E-2
2.431809746E1,1.376843870E-2
2.432803646E1,-5.873016492E-3
2.433797546E1,-9.161929116E-3
2.434791446E1,-1.299273245E-2
2.435785346E1,-1.939112127E-2
2.436779246E1,-1.895740405E-3
2.437773146E1,-1.166782647E-2
2.438767046E1,5.777926147E-3
2.439760946E1,-1.915832900E-2
2.440754846E1,-2.516495436E-3
2.441748746E1,-9.362050071E-3
2.442742629E1,-6.775899678E-3
2.443736529E1,-1.496996842E-2
2.444730429E1,-2.766975537E-3
2.445724329E1,-4.202759340E-3
2.446718229E1,-5.086565986E-3
2.447712129E1,-1.195616730E-2
2.448706029E1,-4.696337432E-3
2.449699929E1,9.287717342E-3
2.450693829E1,-7.925681546E-3
2.451687729E1,-3.596183807E-3
2.452681629E1,1.726682782E-3
2.453675529E1,-4.041887820E-3
2.454669429E1,-2.346780002E-2
2.455663329E1,-1.374782726E-2
2.456657229E1,-3.194260821E-3
2.457651129E1,2.392607555E-3
2.458645029E1,-8.929867744E-3
2.459638929E1,-1.018036790E-2
2.460632829E1,1.393099129E-4
2.461626729E1,-1.274539523E-2
2.462620629E1,-1.286117010E-2
2.463614529E1,-1.443487510E-2
2.464608429E1,-8.281119168E-4
2.465602329E1,6.917183027E-3
2.466596229E1,-1.729547918E-2
2.467590129E1,8.851076514E-3
2.468584029E1,2.565977499E-3
2.469577929E1,-4.147576243E-3
2.470571829E1,-2.800304666E-3
2.471565729E1,1.141274169E-2
2.472559629E1,5.888803974E-3
2.473553529E1,3.582954481E-3
2.474547529E1,-2.455655158E-2
2.475541429E1,4.050804824E-3
2.476535329E1,-6.947880909E-3
2.477529229E1,8.491618931E-4
2.478523129E1,-7.550217211E-4
2.479517029E1,-1.852997258E-2
2.480510929E1,9.038333595E-4
2.481504829E1,-4.942943752E-3
2.482498729E1,-4.862179086E-3
2.483492629E1,9.070493281E-4
2.484486529E1,5.661858916E-3
2.485480429E1,-7.668696418E-3
2.486474329E1,1.324686706E-3
2.487468229E1,1.575122952E-2
2.488462129E1,3.331743479E-3
2.489456029E1,8.770092577E-4
2.490449929E1,-5.682908893E-3
2.491443829E1,-6.961183324E-3
2.492437729E1,-9.803880304E-3
2.493431629E1,9.870830923E-3
2.494425529E1,-1.721478760E-2
2.495419429E1,2.372727022E-3
2.496413329E1,-2.625779897E-2
2.497407229E1,-1.311428145E-2
2.498401129E1,-6.097111031E-3
2.499395029E1,-1.401899189E-2
2.500388929E1,8.159058541E-4
2.501382829E1,-2.776959658E-2
2.502376729E1,-1.378758833E-2
2.503370629E1,-3.235776052E-3
2.504364529E1,-2.783420831E-3
2.505358429E1,4.908372089E-3
2.506352329E1,4.791281596E-3
2.507346229E1,-1.063513510E-2
2.508340129E1,-9.730643928E-3
2.509334029E1,-9.325578064E-4
2.510327929E1,-1.069097601E-2
2.511321829E1,-2.065397367E-2
2.512315729E1,7.282341644E-3
2.513309629E1,-5.931415558E-3
2.514303529E1,-1.156674273E-2
2.515297429E1,-1.668320261E-2
2.516291329E1,5.818271935E-3
2.517285229E1,2.640968040E-3
2.518279229E1,-7.359232530E-3
2.519273129E1,-1.266777344E-2
2.520267029E1,5.402388722E-3
2.521260929E1,-9.079848826E-3
2.522254829E1,-6.419000253E-3
2.523248729E1,-7.873056605E-3
2.524242629E1,-1.963129565E-3
2.525236529E1,-1.228441536E-2
2.526230429E1,-1.427985080E-2
2.527224329E1,1.377143539E-2
2.528218229E1,-1.109194882E-2
2.529212129E1,-1.329422951E-2
2.530206029E1,-1.278055161E-3
2.531199929E1,6.861488298E-3
2.532193829E1,-1.379942894E-3
2.533187729E1,-3.001010343E-3
2.534181629E1,-2.207338527E-2
2.535175529E1,-9.690663591E-3
2.536169429E1,8.386807591E-3
2.537163329E1,-6.877129599E-3
2.538157229E1,-6.274793297E-4
2.539151129E1,8.542051166E-3
2.540145029E1,2.805859521E-3
2.541138929E1,-9.184513986E-3
2.542132842E1,-8.567340374E-3
2.543126742E1,2.666988149E-3
2.544120642E1,-1.622200347E-2
2.545114542E1,-2.893933207E-3
2.546108442E1,-6.093748882E-3
2.547102342E1,-1.031083390E-3
2.548096242E1,1.857952774E-3
2.549090142E1,-1.272938848E-3
2.550084042E1,-6.200095117E-3
2.551077942E1,-2.460332930E-2
2.552071842E1,7.005256712E-3
2.553065742E1,-4.598104209E-4
2.554059642E1,-1.483080469E-2
2.555053542E1,-1.087845236E-2
2.556047442E1,-1.326981738E-2
2.557041342E1,-5.797733590E-3
2.558035242E1,-1.083269790E-2
2.559029242E1,-2.352554128E-3
2.560023142E1,7.228620350E-5
2.561017042E1,-7.343298867E-3
2.562010942E1,-7.180673182E-3
2.563004842E1,-1.277784728E-2
2.563998742E1,-2.470148943E-2
2.564992642E1,-2.423597798E-3
2.565986542E1,2.176406756E-3
2.566980442E1,-1.212624818E-2
2.567974342E1,-1.199168913E-2
2.568968242E1,-4.058479294E-3
2.569962142E1,4.855235517E-3
2.570956042E1,1.727121323E-3
2.571949942E1,-1.530494079E-2
2.572943842E1,1.622405000E-2
2.573937742E1,-1.760596633E-3
2.574931642E1,-1.317589648E-2
2.575925542E1,-1.127123907E-3
2.576919442E1,-4.471511990E-3
2.577913342E1,-1.259504870E-2
2.578907242E1,-1.740643010E-3
2.579901142E1,-8.724484295E-3
2.580895042E1,-1.205980919E-2
2.581888942E1,-5.228287876E-3
2.582882842E1,-1.195061244E-2
2.583876742E1,-1.535047598E-2
2.584870642E1,-4.194280878E-3
2.585864542E1,1.856490970E-4
2.586858442E1,-1.476056501E-3
2.587852342E1,-8.302388415E-3
2.588846242E1,2.989900634E-3
2.589840142E1,-1.774374135E-2
2.590834042E1,-1.951084301E-2
2.591827942E1,-4.151596203E-3
2.592821842E1,-7.196460664E-3
2.593815742E1,-3.321291581E-3
2.594809742E1,5.652064830E-4
2.595803642E1,-1.140623666E-2
2.596797542E1,-3.560808152E-3
2.597791442E1,-1.410297252E-2
2.598785342E1,-5.691533536E-3
2.599779242E1,-1.702307202E-2
2.600773142E1,-6.244826317E-3
2.601767042E1,5.887195989E-3
2.602760942E1,5.977389291E-3
2.603754842E1,-1.270388000E-2
2.604748742E1,5.533658713E-4
2.605742642E1,-1.483146250E-2
2.606736542E1,-1.309418164E-2
2.607730442E1,-8.373578265E-3
2.608724342E1,-3.508694842E-3
2.609718242E1,-1.050627708E-2
2.610712142E1,8.787634224E-4
2.611706042E1,1.542532034E-2
2.612699942E1,-1.808616892E-3
2.613693842E1,-1.893686570E-2
2.614687742E1,-7.907482088E-3
2.615681642E1,-1.207311161E-2
2.616675542E1,-1.905015551E-2
2.617669442E1,-2.388149053E-3
2.618663342E1,-1.231197037E-2
2.619657242E1,-1.944637746E-3
2.620651142E1,-8.932206631E-3
2.621645042E1,-1.134089403E-2
2.622638942E1,1.024359092E-3
2.623632842E1,-6.173490286E-3
2.624626742E1,-4.658184350E-3
2.625620642E1,-2.156372733E-2
2.626614542E1,-1.056971937E-2
2.627608442E1,2.485505193E-3
2.628602342E1,5.711194798E-3
2.629596342E1,-2.494436815E-2
2.630590242E1,-1.178104319E-2
2.631584042E1,-1.356181271E-2
2.632578042E1,-6.127955094E-3
2.633571942E1,-1.283792742E-2
2.634565842E1,-1.110839412E-2
2.635559742E1,-5.166088119E-3
2.636553642E1,-4.761387706E-3
2.637547542E1,-2.029210411E-2
2.638541442E1,-1.323751152E-2
2.639535342E1,-1.722034246E-2
2.640529242E1,9.884718060E-4
2.641523142E1,4.609798640E-4
2.642517021E1,-1.271301627E-2
2.643510921E1,6.936990470E-3
2.644504821E1,-1.815209627E-2
2.645498721E1,-1.077181377E-2
2.646492621E1,2.439677641E-3
2.647486521E1,2.694908604E-3
2.648480421E1,2.172094434E-3
2.649474321E1,-1.630956553E-2
2.650468221E1,-7.749607265E-3
2.651462121E1,-1.144629009E-2
2.652456021E1,-1.466949463E-2
2.653449921E1,-5.296846479E-3
2.654443821E1,-7.767222002E-3
2.655437721E1,-1.064098231E-2
2.656431621E1,-1.920956522E-3
2.657425521E1,-3.324580640E-3
2.658419421E1,-2.049741447E-2
2.659413321E1,-2.043594562E-2
2.660407221E1,-6.123788953E-3
2.661401121E1,6.244095415E-4
2.662395021E1,-8.280022815E-3
2.663389021E1,-1.170802608E-2
2.664382921E1,-3.604516089E-3
2.665376821E1,-6.494356245E-3
2.666370721E1,-2.374766238E-2
2.667364621E1,-3.094273433E-3
2.668358521E1,-1.565716244E-2
2.669352421E1,-5.856278837E-3
2.670346321E1,3.743460551E-3
2.671340221E1,-1.584273845E-2
2.672334121E1,-2.308919281E-4
2.673328021E1,1.019242778E-2
2.674321921E1,-1.751109526E-2
2.675315821E1,-1.182643220E-2
2.676309721E1,-7.833953351E-3
2.677303621E1,-1.187701061E-2
2.678297521E1,2.116984427E-3
2.679291421E1,-5.064346567E-3
2.680285321E1,-1.630474158E-2
2.681279221E1,-1.163954057E-2
2.682273121E1,-1.263130143E-2
2.683267021E1,-2.411932603E-2
2.684260921E1,-2.228081524E-3
2.685254821E1,-1.420076720E-2
2.686248721E1,-7.085948288E-3
2.687242621E1,-7.934671640E-3
2.688236521E1,-1.260878965E-3
2.689230421E1,-2.238884255E-2
2.690224321E1,-1.060151361E-2
2.691218221E1,-8.542708978E-3
2.692212121E1,-2.031607769E-2
2.693206021E1,-1.871934928E-2
2.694200021E1,-9.429585412E-3
2.695193921E1,-5.076040998E-3
2.696187821E1,-1.076048478E-2
2.697181721E1,-5.187649727E-3
2.698175621E1,2.119250223E-3
2.699169521E1,-5.288733467E-3
2.700163421E1,-5.284786597E-3
2.701157321E1,-9.175085351E-3
2.702151221E1,-3.278731160E-2
2.703145121E1,-4.485764578E-3
2.704139021E1,-1.428292058E-2
2.705132921E1,-2.508155845E-2
2.706126821E1,-1.159700207E-2
2.707120721E1,-1.574216634E-3
2.708114621E1,-2.232452318E-2
2.709108521E1,-1.891311139E-2
2.710102421E1,-1.667004637E-2
2.711096321E1,4.250267968E-3
2.712090221E1,-1.283171475E-3
2.713084121E1,-3.198865503E-3
2.714078021E1,8.620330766E-3
2.715071921E1,-2.366894424E-2
2.716065821E1,-9.767189026E-3
2.717059721E1,-4.694437087E-3
2.718053621E1,3.238407299E-3
2.719047521E1,-2.613486126E-3
2.720041421E1,-5.074871555E-3
2.721035321E1,-7.995701954E-3
2.722029221E1,1.299470589E-2
2.723023121E1,-4.797713533E-3
2.724017121E1,-2.316374481E-3
2.725011021E1,-8.311963230E-3
2.726004921E1,-2.181946993E-2
2.726998821E1,-1.684071198E-3
2.727992721E1,-1.036397047E-2
2.728986621E1,5.651991740E-3
2.729980521E1,1.547984563E-2
2.730974421E1,-1.951069683E-2
2.731968321E1,-7.876711115E-3
2.732962221E1,-1.991488561E-3
2.733956121E1,-1.249520749E-2
2.734950021E1,-4.443299174E-3
2.735943921E1,4.461937174E-3
2.736937821E1,-1.125647485E-2
2.737931721E1,-8.548556194E-3
2.738925621E1,-2.603984401E-3
2.739919521E1,2.891521230E-3
2.740913421E1,4.711832553E-3
2.741907321E1,-8.387903944E-3
2.742901279E1,-4.915315658E-3
2.743895179E1,-1.353637733E-2
2.744889079E1,-1.670936890E-2
2.745882979E1,-7.308507934E-3
2.746876879E1,-2.100977674E-3
2.747870779E1,7.269989401E-3
2.748864679E1,-1.770127594E-2
2.749858579E1,-6.627014950E-3
2.750852479E1,-6.915355772E-3
2.751846479E1,-1.213955060E-2
2.752840379E1,-1.502317809E-2
2.753834279E1,-1.143876180E-2
2.754828179E1,-2.878438085E-3
2.755822079E1,-1.109494552E-2
2.756815979E1,-4.186971858E-3
2.757809879E1,-6.036957800E-3
2.758803779E1,-1.524873443E-2
2.759797679E1,-1.353221118E-2
2.760791579E1,-9.714564085E-3
2.761785479E1,-1.666463770E-2
2.762779379E1,-1.116920516E-2
2.763773279E1,-2.031761259E-3
2.764767179E1,-5.001927540E-3
2.765761079E1,-8.881701306E-3
2.766754979E1,2.899488062E-4
2.767748879E1,4.808969423E-3
2.768742779E1,2.858045921E-3
2.769736679E1,-1.875808708E-2
2.770730579E1,-1.863858461E-2
2.771724479E1,-1.847910181E-2
2.772718379E1,-8.938419297E-3
2.773712279E1,-7.146466970E-3
2.774706179E1,-6.782770157E-3
2.775700079E1,-5.814032704E-3
2.776693979E1,-3.938830644E-4
2.777687879E1,-6.173490286E-3
2.778681779E1,-4.180686101E-3
2.779675779E1,-3.642084450E-4
2.780669679E1,-1.214539781E-2
2.781663579E1,-1.393121056E-2
2.782657479E1,9.780929983E-4
2.783651379E1,-8.152553514E-3
2.784645279E1,-1.019842118E-2
2.785639179E1,-1.374095678E-4
2.786633079E1,5.408674479E-4
2.787626979E1,-1.775938265E-2
2.788620879E1,-1.075354122E-2
2.789614779E1,-5.345816910E-3
2.790608679E1,-1.533834301E-2
2.791602579E1,-3.800836354E-3
2.792596479E1,-1.647343375E-2
2.793590379E1,-2.457211979E-2
2.794584279E1,2.887793630E-3
2.795578179E1,5.116752237E-3
2.796572079E1,-1.642058954E-2
2.797565979E1,-1.493758947E-2
2.798559879E1,-6.531266794E-3
2.799553779E1,1.175093003E-2
2.800547679E1,-4.489419088E-3
2.801541579E1,-4.486349300E-3
2.802535479E1,5.448070094E-3
2.803529379E1,-1.864940196E-2
2.804523379E1,-6.598729044E-3
2.805517279E1,2.632708848E-4
2.806511179E1,-2.523585185E-3
2.807505079E1,-2.241310850E-2
2.808498979E1,7.243092209E-3
2.809492879E1,5.516117066E-4
2.810486779E1,-1.110722467E-2
2.811480679E1,-2.163067795E-2
2.812474579E1,-2.600410290E-2
2.813468479E1,-5.079987869E-3
2.814462379E1,-1.086054526E-2
2.815456279E1,-2.163447864E-2
2.816450179E1,-8.237191960E-3
2.817444079E1,-1.041805722E-2
2.818437979E1,-1.910870075E-2
2.819431879E1,-8.297345191E-3
2.820425779E1,-9.807900265E-3
2.821419679E1,-2.964567572E-2
2.822413579E1,-7.301710546E-4
2.823407479E1,-1.995223470E-2
2.824401379E1,-1.555425145E-2
2.825395279E1,-2.836075008E-2
2.826389179E1,-5.015814677E-3
2.827383079E1,-2.109207630E-2
2.828376979E1,-1.047682174E-2
2.829370879E1,9.198401123E-4
2.830364879E1,-5.128812119E-3
2.831358779E1,-7.569659203E-3
2.832352679E1,3.169410154E-3
2.833346579E1,-1.370039172E-2
2.834340479E1,-9.783195779E-3
2.835334379E1,-9.386242926E-3
2.836328279E1,-1.087801382E-2
2.837322179E1,-2.464601398E-3
2.838316079E1,-3.697486818E-3
2.839309979E1,5.418907106E-4
2.840303879E1,-2.206607625E-2
2.841297779E1,-1.492012091E-2
2.842291679E1,1.049962588E-2
2.843285504E1,-3.050711676E-3
2.844279404E1,-1.523908652E-2
2.845273304E1,-1.941173270E-2
2.846267204E1,-5.949030295E-3
2.847261104E1,-1.490477197E-2
2.848255004E1,-1.061181933E-2
2.849248904E1,-4.778344631E-3
2.850242804E1,-1.305412821E-2
2.851236704E1,-1.495893180E-2
2.852230604E1,-2.991296656E-2
2.853224504E1,-2.704834253E-2
2.854218504E1,-2.712574504E-2
2.855212404E1,2.791460752E-3
2.856206304E1,-1.620307311E-2
2.857200204E1,-9.344581515E-4
2.858194104E1,7.875030041E-3
2.859188004E1,5.481326133E-3
2.860181904E1,9.657407552E-4
2.861175804E1,-1.543007120E-2
2.862169704E1,-1.987746343E-2
2.863163604E1,1.739042334E-2
2.864157504E1,1.315477341E-2
2.865151404E1,-4.919189438E-3
2.866145304E1,2.223549932E-3
2.867139204E1,-6.393199414E-4
2.868133104E1,-4.726158231E-3
2.869127004E1,-7.507093996E-4
2.870120904E1,-1.495849326E-2
2.871114804E1,-2.234856986E-2
2.872108704E1,-1.079249829E-2
2.873102604E1,-4.443079904E-3
2.874096504E1,-4.340680540E-3
2.875090404E1,9.393113405E-3
2.876084304E1,-1.456446402E-2
2.877078304E1,-2.282643355E-2
2.878072204E1,-1.500804842E-2
2.879066104E1,3.226274326E-3
2.880060004E1,-6.022997573E-3
2.881053904E1,-1.693894520E-2
2.882047804E1,-3.412581235E-4
2.883041704E1,-8.550456539E-3
2.884035604E1,-8.156865835E-4
2.885029504E1,8.808391839E-3
2.886023404E1,5.726032108E-3
2.887017304E1,4.125429913E-3
2.888011204E1,-7.571705729E-3
2.889005104E1,-9.507280290E-3
2.889999004E1,-7.366103008E-3
2.890992904E1,-1.312334463E-2
2.891986804E1,1.348704144E-2
2.892980704E1,-8.173018768E-3
2.893974604E1,-7.861727625E-3
2.894968504E1,-2.329947330E-2
2.895962404E1,-1.222513922E-2
2.896956304E1,7.065921575E-3
2.897950204E1,1.159502864E-2
2.898944104E1,-2.165107012E-2
2.899938104E1,4.087642282E-3
2.900932004E1,-6.367325485E-3
2.901925904E1,-1.327464134E-2
2.902919804E1,-5.190207884E-3
2.903913704E1,-8.155915663E-3
2.904907604E1,-1.137466170E-2
2.905901504E1,-1.417788997E-2
2.906895404E1,2.301756442E-3
2.907889304E1,-1.976139620E-3
2.908883204E1,-3.133354761E-2
2.909877104E1,-2.001297265E-2
2.910871004E1,9.599081576E-3
2.911864904E1,5.530004203E-4
2.912858804E1,8.002791703E-3
2.913852704E1,3.673367053E-3
2.914846604E1,8.001110628E-3
2.915840504E1,-1.523294695E-2
2.916834404E1,-1.379504353E-3
2.917828304E1,-2.405127905E-2
2.918822204E1,2.372653931E-3
2.919816104E1,-4.378833622E-4
2.920810004E1,4.839374945E-3
2.921803904E1,-2.196075328E-2
2.922797904E1,-1.157163978E-2
2.923791804E1,-5.042638779E-3
2.924785704E1,-1.149387181E-2
2.925779604E1,-1.458354056E-2
2.926773504E1,1.300201491E-3
2.927767404E1,3.621984646E-3
2.928761304E1,-8.996745273E-3
2.929755204E1,-2.348249115E-2
2.930749104E1,-3.826417923E-3
2.931743004E1,-6.815733835E-3
2.932736904E1,-1.694018774E-2
2.933730804E1,-1.479542904E-2
2.934724704E1,-9.848026782E-3
2.935718604E1,-1.380973466E-2
2.936712504E1,-4.936365634E-3
2.937706404E1,-7.491452694E-3
2.938700304E1,-5.215935633E-3
2.939694204E1,8.092692643E-3
2.940688104E1,-1.655069008E-2
2.941682004E1,-1.641898155E-3
2.942675917E1,-6.191543564E-3
2.943669817E1,-1.443779871E-2
2.944663717E1,6.016857997E-3
2.945657717E1,-1.067993939E-2
2.946651617E1,-2.412561178E-2
2.947645517E1,-1.613371052E-2
2.948639417E1,-1.300289199E-2
2.949633317E1,-6.533751860E-3
2.950627217E1,-1.940625094E-2
2.951621117E1,-3.002947234E-2
2.952615017E1,-1.096952274E-2
2.953608917E1,1.223237514E-2
2.954602817E1,-1.035600364E-2
2.955596717E1,-1.429870807E-2
2.956590617E1,-9.303651005E-3
2.957584517E1,-2.615532652E-3
2.958578417E1,-7.184546962E-3
2.959572317E1,5.541479364E-3
2.960566217E1,-2.501073405E-3
2.961560117E1,2.317982465E-3
2.962554017E1,-3.251636624E-3
2.963547917E1,-1.457199231E-3
2.964541817E1,-7.894983664E-3
2.965535717E1,-3.492834270E-3
2.966529717E1,-1.753331468E-2
2.967523617E1,-1.994441405E-2
2.968517517E1,-1.915876754E-2
2.969511417E1,-1.181678429E-2
2.970505317E1,1.794071943E-3
2.971499217E1,-1.802689277E-2
2.972493117E1,-2.247976676E-2
2.973487017E1,-2.085124411E-2
2.974480917E1,-6.368348747E-4
2.975474817E1,8.493373096E-3
2.976468717E1,-1.873915672E-2
2.977462617E1,-2.203143150E-2
2.978456517E1,-3.099755198E-3
2.979450417E1,-1.820157833E-2
2.980444317E1,-1.347658955E-2
2.981438217E1,-1.491003446E-2
2.982432117E1,5.585187301E-3
2.983426017E1,-7.039024383E-3
2.984419917E1,-6.520083994E-3
2.985413817E1,-4.815693721E-3
2.986407717E1,-1.747111492E-2
2.987401717E1,-2.082632035E-3
2.988395617E1,-1.554263011E-3
2.989389517E1,3.560077250E-3
2.990383417E1,-1.080923595E-2
2.991377317E1,-9.625686407E-3
2.992371217E1,-7.176726311E-4
2.993365117E1,4.029462487E-4
2.994359017E1,-6.816537827E-3
2.995352917E1,8.029104173E-3
2.996346817E1,-1.833635665E-2
2.997340717E1,-1.595098503E-2
2.998334617E1,1.221293315E-2
2.999328517E1,9.217039123E-3
3.000322417E1,-3.795354590E-3
3.001316317E1,-1.227469437E-2
3.002310217E1,3.640476465E-3
3.003304117E1,-1.787128374E-3
3.004298017E1,3.952717781E-4
3.005291917E1,-2.647619247E-3
3.006285817E1,-2.000032805E-2
3.007279817E1,-6.607353687E-4
3.008273717E1,-1.041608378E-3
3.009267617E1,-1.191143610E-2
3.010261517E1,3.176061362E-3
3.011255417E1,-7.649473697E-3
3.012249317E1,-1.177271090E-2
3.013243217E1,4.837182239E-3
3.014237117E1,4.795959368E-3
3.015231017E1,-1.042061538E-2
3.016224917E1,-1.744626425E-2
3.017218817E1,-7.866039947E-3
3.018212717E1,-2.246880323E-2
3.019206617E1,-1.656384632E-2
3.020200517E1,-5.831428170E-3
3.021194417E1,1.179895028E-3
3.022188317E1,-6.134021580E-3
3.023182217E1,-1.902552411E-2
3.024176117E1,-1.353513479E-2
3.025170017E1,-1.269123539E-2
3.026163917E1,-1.475844540E-2
3.027157917E1,1.069748104E-3
3.028151817E1,-1.015763685E-2
3.029145717E1,-1.554723479E-2
3.030139617E1,2.890644148E-3
3.031133517E1,-9.083137885E-3
3.032127417E1,-1.191757567E-2
3.033121317E1,-2.498953789E-3
3.034115217E1,-2.406487383E-2
3.035109117E1,-2.131448977E-2
3.036103017E1,-2.137427755E-2
3.037096917E1,2.105582356E-3
3.038090817E1,-7.612270787E-3
3.039084717E1,-2.033186518E-2
3.040078617E1,-2.970977582E-2
3.041072517E1,-7.461997345E-3
3.042066417E1,-9.468323216E-3
3.043060342E1,-7.128194422E-3
3.044054242E1,-9.296341985E-4
3.045048142E1,-2.207323909E-4
3.046042142E1,-2.415119335E-3
3.047036042E1,-7.603865415E-3
3.048029942E1,-1.570627905E-2
3.049023842E1,-4.090858251E-4
3.050017742E1,2.506920621E-3
3.051011642E1,1.996677965E-3
3.052005542E1,-2.090774283E-2
3.052999442E1,-6.290142238E-4
3.053993342E1,8.928990662E-3
3.054987242E1,-1.013863340E-2
3.055981142E1,-1.093575507E-2
3.056975042E1,-2.510209680E-3
3.057968942E1,-8.325411826E-3
3.058962842E1,5.218932331E-3
3.059956742E1,-6.319085956E-3
3.060950642E1,1.414097942E-2
3.061944542E1,-5.433305874E-3
3.062938442E1,-2.959641293E-3
3.063932342E1,3.915295601E-3
3.064926342E1,-2.045706868E-2
3.065920242E1,1.064419828E-2
3.066914142E1,-2.141813166E-2
3.067908042E1,-1.707394280E-2
3.068901942E1,-1.795000188E-2
3.069895842E1,-6.738331318E-3
3.070889742E1,-5.122453272E-3
3.071883642E1,-4.902305603E-3
3.072877542E1,-2.194131128E-2
3.073871442E1,-1.660770044E-2
3.074865342E1,-1.178418607E-2
3.075859242E1,6.535140574E-3
3.076853142E1,-3.062771559E-3
3.077847042E1,-1.765457131E-2
3.078840942E1,-1.783912405E-3
3.079834842E1,-1.112600885E-2
3.080828742E1,4.249463975E-4
3.081822642E1,1.459611207E-4
3.082816542E1,-1.065918177E-2
3.083810542E1,4.344554320E-3
3.084804442E1,-2.175120369E-2
3.085798342E1,-8.958080560E-3
3.086792242E1,-1.433810368E-3
3.087786142E1,-2.098514535E-2
3.088780042E1,-8.474223465E-3
3.089773942E1,6.133217588E-3
3.090767842E1,-6.859441772E-3
3.091761742E1,6.840365231E-3
3.092755642E1,-7.371950224E-3
3.093749542E1,2.716250941E-3
3.094743442E1,-1.694961637E-4
3.095737342E1,-7.472010702E-4
3.096731242E1,-1.967778102E-2
3.097725142E1,-3.464548364E-3
3.098719042E1,-8.595772460E-3
3.099712942E1,-4.896166027E-3
3.100706842E1,-3.495757878E-3
3.101700742E1,-1.499153003E-3
3.102694742E1,-8.423718140E-3
3.103688642E1,-3.492249548E-3
3.104682542E1,-1.177863121E-2
3.105676442E1,-1.223456785E-3
3.106670342E1,-9.019330144E-4
3.107664242E1,-2.994797677E-3
3.108658142E1,-8.866206184E-3
3.109652042E1,-4.949960411E-3
3.110645942E1,-1.581211366E-2
3.111639842E1,-2.523936018E-2
3.112633742E1,-1.762811266E-2
3.113627642E1,-7.630177885E-3
3.114621542E1,6.206527054E-3
3.115615442E1,-3.029661700E-3
3.116609342E1,-9.420449138E-3
3.117603242E1,-9.789700806E-3
3.118597142E1,-1.179895028E-2
3.119591042E1,-1.903919198E-2
3.120585042E1,-2.753278434E-2
3.121578942E1,-6.271284968E-3
3.122572842E1,-1.641094163E-2
3.123566742E1,-8.563539684E-3
3.124560642E1,-1.904006906E-2
3.125554542E1,-8.782152459E-3
3.126548442E1,-6.283783391E-3
3.127542342E1,-1.382427961E-2
3.128536242E1,-6.895548329E-3
3.129530142E1,-3.804637045E-3
3.130524042E1,5.025754943E-3
3.131517942E1,-2.364387430E-2
3.132511842E1,-2.587159038E-2
3.133505742E1,-3.502482176E-3
3.134499642E1,9.854824170E-3
3.135493542E1,2.812072188E-3
3.136487442E1,-2.986099944E-3
3.137481342E1,-2.616629004E-3
3.138475342E1,1.000531688E-3
3.139469242E1,1.480661184E-3
3.140463142E1,1.174954131E-2
3.141457042E1,-5.289902911E-3
3.142450942E1,1.912551150E-3
3.143444796E1,-1.242533326E-4
3.144438696E1,-3.376087300E-2
3.145432596E1,-2.327118739E-2
3.146426496E1,-1.402995542E-2
3.147420396E1,-8.150068447E-3
3.148414296E1,-1.469953470E-2
3.149408196E1,-1.287958883E-2
3.150402096E1,4.239816070E-3
3.151395996E1,5.728078634E-3
3.152389896E1,-7.117230892E-3
3.153383796E1,-5.603313670E-3
3.154377696E1,-1.382186763E-2
3.155371696E1,-1.232329935E-2
3.156365596E1,-9.378276095E-3
3.157359496E1,-1.314907238E-2
3.158353396E1,-9.268129170E-3
3.159347296E1,-1.164253727E-2
3.160341196E1,-2.220290110E-2
3.161335096E1,-2.374773547E-2
3.162328996E1,-8.041456416E-3
3.163322896E1,-4.254287928E-3
3.164316796E1,-5.545206964E-3
3.165310696E1,1.407030120E-2
3.166304596E1,-7.662264481E-3
3.167298496E1,-1.283646561E-2
3.168292396E1,-1.269766733E-2
3.169286296E1,-3.773500621E-3
3.170280196E1,-1.182190061E-2
3.171274096E1,-1.133928604E-2
3.172268096E1,-2.233439036E-2
3.173261996E1,-1.612128519E-2
3.174255896E1,-1.496397503E-2
3.175249796E1,-1.365573362E-2
3.176243696E1,6.982306391E-4
3.177237596E1,-1.162360691E-2
3.178231496E1,-3.989482149E-3
3.179225396E1,2.593093961E-3
3.180219296E1,-1.082239218E-2
3.181213196E1,-1.836793162E-2
3.182207096E1,-8.825348765E-3
3.183200996E1,-1.355750039E-3
3.184194896E1,3.950525075E-3
3.185188796E1,-8.320660964E-3
3.186182696E1,-9.191969186E-3
3.187176596E1,-1.109501861E-2
3.188170496E1,-2.485220142E-2
3.189164396E1,-8.907502145E-3
3.190158396E1,-1.652803212E-2
3.191152296E1,-2.494049437E-2
3.192146196E1,-2.468482487E-2
3.193140096E1,-1.966148190E-2
3.194133996E1,-1.002468579E-2
3.195127896E1,-1.949001230E-2
3.196121796E1,-5.290779993E-3
3.197115696E1,-1.882869221E-2
3.198109596E1,-1.714842170E-3
3.199103496E1,-2.157030545E-2
3.200097396E1,-1.692725077E-2
3.201091296E1,-9.837721065E-3
3.202085196E1,-9.594038352E-3
3.203079096E1,2.873541042E-3
3.204072996E1,2.022405714E-3
3.205066896E1,-1.446798496E-2
3.206060896E1,-1.763629876E-2
3.207054796E1,-6.250819713E-3
3.208048696E1,-8.246401325E-3
3.209042596E1,-2.904092744E-3
3.210036496E1,-1.431201048E-2
3.211030396E1,-1.027450807E-2
3.212024296E1,-2.134752654E-2
3.213018196E1,-2.298072696E-2
3.214012096E1,-2.372200772E-2
3.215005996E1,-2.419307403E-2
3.215999896E1,-1.630664192E-2
3.216993796E1,-2.437353373E-2
3.217987696E1,-4.385704100E-3
3.218981596E1,-6.616855413E-3
3.219975496E1,-1.458580635E-2
3.220969396E1,-9.002738670E-3
3.221963396E1,-6.672696322E-3
3.222957296E1,-1.120363064E-2
3.223951196E1,5.640004948E-3
3.224945096E1,-8.416336030E-3
3.225938996E1,-1.906733170E-2
3.226932896E1,-1.719826922E-2
3.227926796E1,-1.024790324E-2
3.228920696E1,-1.212749071E-2
3.229914596E1,2.634682283E-3
3.230908496E1,-9.633214697E-3
3.231902396E1,-2.323376521E-2
3.232896296E1,-1.401994206E-2
3.233890196E1,-6.861049756E-3
3.234884096E1,-1.464069709E-2
3.235877996E1,1.706656069E-4
3.236871896E1,-5.184872299E-3
3.237865896E1,7.168978751E-3
3.238859796E1,-1.479806028E-2
3.239853696E1,-9.857601598E-3
3.240847596E1,-5.215789452E-3
3.241841496E1,7.782570943E-3
3.242835396E1,-1.471999995E-2
3.243829296E1,-1.830551259E-2
3.244823196E1,-1.158362657E-2
3.245817096E1,-1.390599445E-2
3.246810996E1,-1.132532582E-3
3.247804896E1,-1.691716433E-2
3.248798796E1,-1.252130069E-2
3.249792696E1,-4.303696901E-3
3.250786596E1,-1.323846169E-2
3.251780496E1,-2.885469362E-2
3.252774396E1,-2.234352663E-2
3.253768396E1,-1.998965688E-2
3.254762296E1,-2.106949143E-2
3.255756196E1,-8.611998484E-3
3.256750096E1,-1.168851100E-2
3.257743996E1,-9.001569226E-3
3.258737896E1,-1.602824137E-2
3.259731796E1,-1.509838790E-2
3.260725696E1,-1.063542746E-2
3.261719596E1,-6.219464019E-3
3.262713496E1,-1.192532323E-2
3.263707396E1,-6.103469878E-3
3.264701296E1,-4.564190358E-3
3.265695196E1,5.303205326E-3
3.266689096E1,-1.223376386E-2
3.267682996E1,-8.589267433E-3
3.268676996E1,-1.656676993E-2
3.269670896E1,5.269437656E-3
3.270664796E1,-5.585552752E-4
3.271658696E1,-1.434307382E-2
3.272652596E1,-1.885047309E-2
3.273646496E1,-1.931423038E-2
3.274640396E1,-2.121925324E-2
3.275634296E1,-5.937116593E-3
3.276628196E1,-6.974778101E-3
3.277622096E1,-1.339165874E-2
3.278615996E1,-1.106797524E-2
3.279609896E1,3.014605120E-3
3.280603796E1,-1.156111479E-2
3.281597696E1,-1.007840708E-3
3.282591596E1,-1.676294401E-2
3.283585496E1,-2.115961164E-4
3.284579496E1,-1.375345521E-2
3.285573396E1,-3.172626123E-3
3.286567296E1,-8.322634399E-3
3.287561196E1,-8.327312171E-3
3.288555096E1,7.402501926E-3
3.289548996E1,-2.282095179E-2
3.290542896E1,-1.091148913E-2
3.291536796E1,-1.304148361E-2
3.292530696E1,-2.281510457E-3
3.293524596E1,-1.495286532E-2
3.294518496E1,-7.411711290E-3
3.295512396E1,-1.711187661E-2
3.296506296E1,-1.798245393E-2
3.297500196E1,-3.999568596E-3
3.298494096E1,-2.889401615E-3
3.299488096E1,-1.041308708E-2
3.300481996E1,-1.071282998E-2
3.301475896E1,-2.243737444E-2
3.302469796E1,-2.038405158E-2
3.303463696E1,-1.399216779E-2
3.304457596E1,-2.218894087E-2
3.305451496E1,-1.407176301E-2
3.306445396E1,4.112858400E-3
3.307439296E1,-3.587339893E-3
3.308433196E1,-1.185047887E-2
3.309427096E1,-1.411700584E-2
3.310420996E1,-1.703652062E-2
3.311414896E1,-1.341117382E-2
3.312408896E1,-1.757526845E-3
3.313402796E1,-1.692842022E-2
3.314396696E1,-1.680935629E-2
3.315390596E1,-1.789101809E-3
3.316384496E1,-2.587714523E-2
3.317378396E1,-1.820530593E-2
3.318372296E1,-5.744012296E-3
3.319366196E1,1.531897411E-3
3.320360096E1,3.350016028E-3
3.321353996E1,-7.784617469E-3
3.322347896E1,-1.877197422E-2
3.323341796E1,-1.435915366E-2
3.324335696E1,-2.370738968E-2
3.325329596E1,-1.423446178E-2
3.326323496E1,-3.477046788E-3
3.327317496E1,-1.523857489E-2
3.328311396E1,-2.226327360E-3
3.329305296E1,-8.135084957E-3
3.330299196E1,-1.755940787E-2
3.331293096E1,-4.561047480E-3
3.332286996E1,-9.288959876E-3
3.333280896E1,-9.038041234E-3
3.334274796E1,-9.893927425E-3
3.335268696E1,-1.911272071E-2
3.336262596E1,-2.814389147E-2
3.337256496E1,-7.927289531E-3
3.338250396E1,-1.004741684E-2
3.339244296E1,-3.543485776E-3
3.340238196E1,-1.797572963E-2
3.341232196E1,-9.651633427E-3
3.342226096E1,-2.057715587E-2
3.343220029E1,-1.596136384E-2
3.344213929E1,-2.427354634E-2
3.345207829E1,-2.088756993E-2
3.346201729E1,-1.078665107E-2
3.347195629E1,-1.186231948E-2
3.348189529E1,-1.111701876E-2
3.349183429E1,-1.335153222E-2
3.350177329E1,-9.716098979E-3
3.351171229E1,-2.360966809E-2
3.352165129E1,-1.405860677E-2
3.353159029E1,-9.169530496E-3
3.354153029E1,-1.211382285E-2
3.355146929E1,-1.563808590E-2
3.356140829E1,-1.769367456E-2
3.357134729E1,-2.452300318E-2
3.358128629E1,-2.175500438E-2
3.359122529E1,-1.055722095E-2
3.360116429E1,1.488554925E-3
3.361110329E1,-1.167257734E-2
3.362104229E1,-2.429561958E-2
3.363098129E1,-1.216600925E-2
3.364092029E1,-1.686278522E-2
3.365085929E1,-1.274283707E-2
3.366079829E1,-2.863893136E-3
3.367073729E1,-1.318598293E-2
3.368067729E1,-6.188473776E-3
3.369061629E1,-1.077641845E-2
3.370055529E1,-1.407132447E-2
3.371049429E1,-1.532072827E-2
3.372043329E1,-2.488063350E-2
3.373037229E1,-2.004082002E-2
3.374031129E1,-2.489452064E-4
3.375025029E1,-3.055170178E-3
3.376018929E1,-1.868200019E-2
3.377012829E1,-1.301085882E-2
3.378006729E1,-5.669898838E-3
3.379000629E1,-1.555264346E-2
3.379994529E1,-2.061392024E-2
3.380988429E1,-9.856870696E-3
3.381982429E1,3.195430264E-3
3.382976329E1,-1.134557180E-2
3.383970229E1,-1.349128067E-2
3.384964129E1,-8.786757141E-3
3.385958029E1,-9.277411625E-3
3.386951929E1,2.475491837E-3
3.387945829E1,7.503512576E-3
3.388939729E1,-1.834388494E-2
3.389933629E1,-6.511605531E-4
3.390927529E1,-1.841902167E-2
3.391921429E1,-1.368833184E-2
3.392915329E1,-8.803348616E-3
3.393909229E1,-1.754530147E-2
3.394903129E1,-2.184812129E-2
3.395897129E1,-2.140292890E-2
3.396891029E1,-2.128349952E-2
3.397884929E1,-9.250733703E-3
3.398878829E1,-1.629494749E-2
3.399872729E1,2.890059426E-3
3.400866629E1,-1.474945530E-2
3.401860529E1,-5.106519610E-3
3.402854429E1,-1.123929866E-2
3.403848329E1,-1.780937634E-2
3.404842229E1,2.415338606E-3
3.405836129E1,-4.355006218E-3
3.406830029E1,-1.617200978E-2
3.407823929E1,-3.000717983E-2
3.408817929E1,-1.860496312E-2
3.409811829E1,-1.394239336E-2
3.410805729E1,-3.054212697E-2
3.411799629E1,-1.326367781E-2
3.412793529E1,-1.100723729E-2
3.413787429E1,-6.984060556E-3
3.414781329E1,-8.132234439E-3
3.415775229E1,-1.103873916E-2
3.416769129E1,-2.051692955E-2
3.417763029E1,-5.458814353E-3
3.418756929E1,-4.248586893E-3
3.419750829E1,-2.564113699E-2
3.420744729E1,-2.175200768E-2
3.421738629E1,-5.740503967E-4
3.422732629E1,-3.868371695E-3
3.423726529E1,-1.188746251E-2
3.424720429E1,-8.434827849E-3
3.425714329E1,-1.388640627E-2
3.426708229E1,-2.558909677E-2
3.427702129E1,-2.338981278E-2
3.428696029E1,-1.136844903E-2
3.429689929E1,-1.927936636E-2
3.430683829E1,-3.207490146E-3
3.431677729E1,-1.548430413E-2
3.432671629E1,-1.240450256E-2
3.433665529E1,-1.610564388E-2
3.434659429E1,-1.996970326E-3
3.435653429E1,-1.679269172E-2
3.436647329E1,-1.502559006E-2
3.437641229E1,-1.469646491E-2
3.438635129E1,-2.920918107E-2
3.439629029E1,1.663313583E-3
3.440622929E1,3.065183535E-3
3.441616829E1,-3.734002680E-2
3.442610729E1,-2.542135477E-2
3.443604596E1,-6.500203460E-3
3.444598496E1,1.337236293E-2
3.445592396E1,-2.198487304E-2
3.446586296E1,-2.379180886E-2
3.447580196E1,-1.570525579E-2
3.448574196E1,-1.853574671E-2
3.449568096E1,-1.835214414E-2
3.450561996E1,-7.895714566E-3
3.451555896E1,-1.671243869E-2
3.452549796E1,-4.541970938E-3
3.453543696E1,-2.184322424E-2
3.454537596E1,-8.451346233E-3
3.455531496E1,-1.336337283E-2
3.456525396E1,1.066977985E-2
3.457519296E1,-3.565120474E-3
3.458513196E1,-2.574010111E-2
3.459507096E1,-2.028442964E-2
3.460500996E1,-1.936890185E-3
3.461494996E1,-1.040533952E-2
3.462488896E1,-1.810553782E-2
3.463482796E1,-9.006027728E-3
3.464476696E1,-1.569261119E-2
3.465470596E1,-1.381623968E-2
3.466464496E1,-9.101848975E-3
3.467458396E1,-3.916172683E-4
3.468452296E1,-8.723680303E-3
3.469446196E1,-9.794817120E-3
3.470440096E1,-1.954241797E-2
3.471433996E1,4.267955795E-3
3.472427896E1,5.627506524E-3
3.473421796E1,-1.864896342E-2
3.474415796E1,-7.570828646E-3
3.475409696E1,-8.718271628E-3
3.476403596E1,-1.948051058E-2
3.477397496E1,-2.237787902E-2
3.478391396E1,-3.520484291E-2
3.479385296E1,-9.785315394E-4
3.480379196E1,-1.027991675E-2
3.481373096E1,-3.879627585E-4
3.482366996E1,-1.922571816E-2
3.483360896E1,-1.227213621E-2
3.484354796E1,-1.259870321E-2
3.485348696E1,-1.434512034E-2
3.486342596E1,-6.948100179E-3
3.487336596E1,-4.032459185E-3
3.488330496E1,-1.444335356E-2
3.489324396E1,-2.462014005E-2
3.490318296E1,-2.420177177E-2
3.491312196E1,-1.841660969E-2
3.492306096E1,-1.963180728E-2
3.493299996E1,-1.366567388E-3
3.494293896E1,-1.400934398E-2
3.495287796E1,-2.045092911E-2
3.496281696E1,-2.248108238E-3
3.497275596E1,-1.899745747E-2
3.498269496E1,-1.626468815E-2
3.499263396E1,-2.196945101E-3
3.500257396E1,-1.288799420E-2
3.501251296E1,-2.825169951E-2
3.502245196E1,-2.399083346E-2
3.503239096E1,-9.386316016E-3
3.504232996E1,-2.025848262E-2
3.505226896E1,-2.901900038E-3
3.506220796E1,-3.760344386E-3
3.507214696E1,-1.348389857E-2
3.508208596E1,-1.479974136E-2
3.509202496E1,-1.936027721E-2
3.510196396E1,-1.554197229E-2
3.511190296E1,-1.002432033E-3
3.512184296E1,3.929402009E-3
3.513178196E1,1.456175968E-3
3.514172096E1,-1.107141048E-2
3.515165996E1,-3.085575700E-3
3.516159896E1,-1.350655653E-2
3.517153796E1,-6.766105592E-3
3.518147696E1,-1.256785914E-3
3.519141596E1,-1.293952279E-2
3.520135496E1,-7.930651680E-3
3.521129396E1,-1.010742389E-2
3.522123296E1,-1.180238552E-2
3.523117196E1,-4.675579816E-4
3.524111196E1,-2.036307469E-2
3.525105096E1,-3.683468118E-2
3.526098996E1,-2.502681389E-3
3.527092896E1,-2.271424010E-3
3.528086796E1,-6.113629416E-3
3.529080696E1,-1.413505912E-2
3.530074596E1,-1.160716161E-2
3.531068496E1,-1.756795943E-3
3.532062396E1,-2.703233577E-2
3.533056296E1,-1.969963498E-2
3.534050196E1,-8.960419446E-3
3.535044096E1,-2.049412541E-2
3.536038096E1,-2.626898177E-2
3.537031996E1,-4.204148054E-4
3.538025896E1,-3.183151111E-3
3.539019796E1,-7.282634005E-3
3.540013696E1,-1.506381623E-2
3.541007596E1,-1.540865578E-2
3.542001496E1,-2.028245620E-2
3.542995396E1,-1.702080622E-2
3.543989354E1,-9.063184261E-3
3.544983254E1,-7.641068324E-3
3.545977154E1,-8.866279274E-3
3.546971054E1,-1.010903187E-2
3.547965054E1,-6.596828699E-3
3.548958954E1,-1.210534438E-2
3.549952854E1,-1.298345000E-2
3.550946754E1,-3.948624730E-3
3.551940654E1,-1.334992424E-2
3.552934554E1,-2.392877989E-2
3.553928454E1,-2.033296153E-3
3.554922354E1,-3.799389169E-2
3.555916254E1,-3.267146364E-2
3.556910154E1,-3.692085452E-2
3.557904054E1,-1.047236323E-2
3.558897954E1,-1.443165913E-2
3.559891954E1,-3.714516833E-3
3.560885854E1,-1.947868332E-2
3.561879754E1,-1.179164127E-2
3.562873654E1,-1.675943568E-2
3.563867554E1,-1.560475677E-2
3.564861454E1,-8.006226942E-3
3.565855354E1,-1.938425079E-2
3.566849254E1,-1.935801141E-2
3.567843154E1,-1.014323808E-2
3.568837054E1,-2.183386870E-2
3.569830954E1,-7.466236576E-3
3.570824854E1,-1.034445539E-2
3.571818854E1,-8.188075349E-3
3.572812754E1,-1.196493812E-2
3.573806654E1,-2.047475651E-2
3.574800554E1,-1.597349681E-2
3.575794454E1,-2.023509376E-2
3.576788354E1,-1.538760580E-2
3.577782254E1,-7.971874550E-3
3.578776154E1,-1.230736569E-2
3.579770054E1,-1.334678136E-2
3.580763954E1,-4.006146714E-3
3.581757854E1,-2.926056348E-2
3.582751754E1,-1.837524064E-2
3.583745754E1,-1.356020473E-2
3.584739654E1,-1.178835221E-2
3.585733554E1,-2.381629407E-2
3.586727454E1,-2.838611238E-2
3.587721354E1,-2.468840629E-2
3.588715254E1,-1.384408705E-2
3.589709154E1,-3.931009993E-3
3.590703054E1,1.601172298E-2
3.591696954E1,-3.320926130E-3
3.592690854E1,-2.125024348E-2
3.593684754E1,-1.598650686E-2
3.594678754E1,-1.219977692E-2
3.595672654E1,-1.777955554E-2
3.596666554E1,-1.587986827E-2
3.597660454E1,-1.236927308E-2
3.598654354E1,4.979635030E-4
3.599648254E1,-2.020907365E-2
3.600642154E1,-1.138314016E-2
3.601636054E1,-4.869341925E-3
3.602629954E1,3.271590248E-3
3.603623854E1,-9.500921443E-3
3.604617754E1,-2.684602886E-4
3.605611754E1,-2.791987002E-2
3.606605654E1,-1.501272619E-2
3.607599554E1,4.378833622E-4
3.608593454E1,-1.408024147E-2
3.609587354E1,-1.872176126E-2
3.610581254E1,-2.376388840E-2
3.611575154E1,-2.757042579E-2
3.612569054E1,9.635626674E-3
3.613562954E1,-1.643922754E-2
3.614556854E1,-7.351777330E-3
3.615550754E1,-7.382548302E-3
3.616544654E1,-1.659110896E-2
3.617538654E1,-1.368855111E-2
3.618532554E1,-1.720543206E-3
3.619526454E1,-1.662655771E-2
3.620520354E1,-9.664058760E-3
3.621514254E1,-2.393316530E-2
3.622508154E1,-4.663885385E-3
3.623502054E1,-8.723534122E-3
3.624495954E1,4.924890473E-3
3.625489854E1,7.923635021E-3
3.626483754E1,-1.531999737E-2
3.627477754E1,-1.587365560E-2
3.628471654E1,-4.406242445E-3
3.629465554E1,-1.252875589E-2
3.630459454E1,-1.748770639E-2
3.631453354E1,-2.955402061E-3
3.632447254E1,-9.084014967E-3
3.633441154E1,-2.879856035E-2
3.634435054E1,-1.816802993E-2
3.635428954E1,-1.459070340E-2
3.636422854E1,-5.642563105E-4
3.637416754E1,-1.034394376E-2
3.638410654E1,-1.522022925E-2
3.639404654E1,-1.145001769E-2
3.640398554E1,-2.512745909E-2
3.641392454E1,-1.224173069E-2
3.642386354E1,-8.940465823E-3
3.643380204E1,-2.921115451E-2
3.644374104E1,-2.010513939E-2
3.645368004E1,-2.068949550E-2
3.646361904E1,-1.692651987E-2
3.647355804E1,-2.817261592E-3
3.648349704E1,-8.266793489E-3
3.649343704E1,-8.193630204E-3
3.650337604E1,-3.489684083E-2
3.651331504E1,-1.820135906E-2
3.652325404E1,-2.863118380E-2
3.653319304E1,-3.180417538E-2
3.654313204E1,-2.428370588E-2
3.655307104E1,-1.688237339E-2
3.656301004E1,-1.531707376E-2
3.657294904E1,-2.790656760E-2
3.658288804E1,-4.067030847E-3
3.659282704E1,-1.356466323E-2
3.660276704E1,-2.050837800E-2
3.661270604E1,-2.046401225E-2
3.662264504E1,-5.104911625E-3
3.663258404E1,-1.271009266E-2
3.664252304E1,-1.544739358E-2
3.665246204E1,-1.534557894E-2
3.666240104E1,-1.296620071E-3
3.667234004E1,-1.360895589E-2
3.668227904E1,-2.549751475E-3
3.669221804E1,-2.853580110E-2
3.670215704E1,-2.027112722E-2
3.671209704E1,-3.566940419E-2
3.672203604E1,2.809514031E-3
3.673197504E1,-5.369278863E-3
3.674191404E1,-3.754643351E-3
3.675185304E1,-2.484993562E-3
3.676179204E1,3.598084152E-3
3.677173104E1,-3.707134724E-3
3.678167004E1,-1.191574842E-2
3.679160904E1,-1.567718916E-2
3.680154804E1,-2.336225778E-2
3.681148704E1,-1.036426283E-2
3.682142704E1,-7.178188115E-3
3.683136604E1,-2.971262634E-3
3.684130504E1,-1.004836701E-2
3.685124404E1,-1.445153967E-2
3.686118304E1,-1.199695162E-2
3.687112204E1,-1.346306786E-2
3.688106104E1,-2.813892134E-2
3.689100004E1,-3.225565352E-2
3.690093904E1,-6.323544458E-3
3.691087804E1,6.730364487E-3
3.692081804E1,-1.324350491E-2
3.693075704E1,-9.100460261E-4
3.694069604E1,-5.513997450E-3
3.695063504E1,-5.006093681E-3
3.696057404E1,-4.828557596E-3
3.697051304E1,-2.546754777E-3
3.698045204E1,-2.513016343E-2
3.699039104E1,-1.499730416E-2
3.700033004E1,-4.247198179E-3
3.701026904E1,-1.335723326E-2
3.702020904E1,-1.223719910E-2
3.703014804E1,-6.168958694E-3
3.704008704E1,-1.435082138E-2
3.705002604E1,-1.379109666E-2
3.705996504E1,-6.446262896E-3
3.706990404E1,1.026836850E-2
3.707984304E1,-2.179308437E-2
3.708978204E1,4.102333412E-3
3.709972104E1,-2.626693524E-2
3.710966004E1,-1.686490484E-2
3.711959904E1,-5.028240010E-3
3.712953904E1,4.128134251E-3
3.713947804E1,-6.172174662E-3
3.714941704E1,-7.453811243E-3
3.715935604E1,-2.482216135E-3
3.716929504E1,-1.506008863E-2
3.717923404E1,-1.906068049E-2
3.718917304E1,-2.348855764E-2
3.719911204E1,-1.473798014E-2
3.720905104E1,-1.065084949E-2
3.721899004E1,-8.204228282E-3
3.722893004E1,-1.430857524E-2
3.723886904E1,-1.084848538E-2
3.724880804E1,-1.294522382E-2
3.725874704E1,-8.958446011E-3
3.726868604E1,-1.845052354E-2
3.727862504E1,-2.129892156E-2
3.728856404E1,-1.211316504E-2
3.729850304E1,3.233875707E-3
3.730844204E1,-7.047429755E-3
3.731838104E1,-2.450370736E-2
3.732832104E1,-2.106481366E-2
3.733826004E1,-1.851623163E-2
3.734819904E1,-7.481877878E-3
3.735813804E1,-1.161447063E-2
3.736807704E1,-2.280282542E-2
3.737801604E1,-5.350056142E-3
3.738795504E1,-4.705985337E-3
3.739789404E1,2.917906791E-3
3.740783304E1,-1.287081800E-2
3.741777204E1,-2.626496181E-3
3.742771204E1,-4.187556580E-3
3.743765121E1,-1.326353163E-2
3.744759021E1,-2.629858330E-3
3.745752921E1,-4.396813810E-3
3.746746821E1,-1.259577960E-2
3.747740721E1,-2.940776713E-2
3.748734621E1,-1.621864133E-2
3.749728521E1,-3.297266833E-2
3.750722421E1,-5.762504116E-3
3.751716321E1,-1.559920192E-2
3.752710321E1,-9.726770148E-3
3.753704221E1,-6.353219077E-3
3.754698121E1,-1.183549538E-3
3.755692021E1,1.105993532E-2
3.756685921E1,5.228799507E-3
3.757679821E1,-1.807842135E-2
3.758673721E1,-1.831421033E-2
3.759667621E1,-1.057973273E-2
3.760661521E1,-1.461467698E-2
3.761655421E1,-3.035779350E-2
3.762649421E1,-1.591312431E-2
3.763643321E1,-2.954130292E-2
3.764637221E1,-2.662456557E-2
3.765631121E1,-6.072333455E-3
3.766625021E1,-1.214598253E-2
3.767618921E1,-7.936864346E-3
3.768612821E1,-2.826251686E-3
3.769606721E1,-3.376767039E-4
3.770600621E1,-4.075290039E-3
3.771594521E1,-1.518200308E-2
3.772588521E1,-2.089999527E-2
3.773582421E1,-9.469638839E-3
3.774576321E1,-5.456110016E-3
3.775570221E1,-2.663289785E-2
3.776564121E1,-7.550801933E-3
3.777558021E1,-2.826032415E-3
3.778551921E1,-1.305705182E-2
3.779545821E1,-2.174689136E-2
3.780539721E1,-1.013702542E-2
3.781533621E1,3.040552139E-5
3.782527621E1,-1.244594470E-2
3.783521521E1,-2.411099374E-3
3.784515421E1,-1.699931771E-3
3.785509321E1,-2.734888941E-3
3.786503221E1,-1.497990869E-2
3.787497121E1,-1.286314353E-3
3.788491021E1,-1.090169504E-2
3.789484921E1,-8.491107300E-3
3.790478821E1,3.946139663E-4
3.791472821E1,-5.721208155E-3
3.792466721E1,-1.449809812E-2
3.793460621E1,-3.661160991E-3
3.794454521E1,-1.501645379E-2
3.795448421E1,-1.200572245E-2
3.796442321E1,-5.755048916E-3
3.797436221E1,9.616403952E-3
3.798430121E1,-8.823082969E-3
3.799424021E1,-1.964883730E-2
3.800417921E1,-3.695586473E-3
3.801411921E1,3.801274896E-3
3.802405821E1,-7.387591526E-3
3.803399721E1,-1.536721364E-3
3.804393621E1,-3.640841916E-3
3.805387521E1,-1.965600014E-2
3.806381421E1,-1.565606609E-2
3.807375321E1,-1.221410260E-3
3.808369221E1,-1.411181644E-2
3.809363121E1,-1.371961445E-2
3.810357021E1,-1.075273722E-2
3.811351021E1,-6.762158722E-3
3.812344921E1,-6.816391647E-3
3.813338821E1,-1.373642519E-2
3.814332721E1,-2.954554215E-2
3.815326621E1,-1.987081222E-2
3.816320521E1,-1.478695057E-2
3.817314421E1,-3.056734309E-2
3.818308321E1,-8.602862209E-3
3.819302221E1,-1.247649640E-3
3.820296221E1,-2.529242367E-2
3.821290121E1,-9.962412938E-3
3.822284021E1,1.523345858E-3
3.823277921E1,-9.864910617E-3
3.824271821E1,-9.459625483E-3
3.825265721E1,-6.049748585E-3
3.826259621E1,-2.570187494E-2
3.827253521E1,-2.268588111E-2
3.828247421E1,-1.915723264E-2
3.829241321E1,-2.495584331E-2
3.830235321E1,-9.099729359E-3
3.831229221E1,-3.305357918E-3
3.832223121E1,-1.132919960E-2
3.833217021E1,-2.652421273E-2
3.834210921E1,-2.154772058E-2
3.835204821E1,-1.443363257E-2
3.836198721E1,1.279992051E-2
3.837192621E1,-1.120509245E-2
3.838186521E1,-2.244768016E-2
3.839180521E1,-9.828073159E-3
3.840174421E1,-6.462342739E-3
3.841168321E1,-1.149153292E-2
3.842162221E1,-1.689611435E-2
3.843156121E1,-1.735322043E-2
3.844150033E1,-2.181311108E-2
3.845143933E1,-1.589404777E-2
3.846137833E1,-1.217514552E-2
3.847131733E1,-1.789774239E-2
3.848125733E1,-6.560722142E-3
3.849119633E1,-6.349930018E-3
3.850113533E1,-1.223500639E-2
3.851107433E1,2.400282025E-4
3.852101333E1,-1.126539186E-2
3.853095233E1,-5.052140504E-3
3.854089133E1,-4.387604445E-3
3.855083033E1,-1.347958624E-2
3.856076933E1,-2.810091443E-2
3.857070833E1,-2.532641061E-2
3.858064833E1,-9.204467610E-3
3.859058733E1,-3.213995174E-3
3.860052633E1,-3.174197562E-2
3.861046533E1,-1.298564270E-2
3.862040433E1,-1.051621735E-3
3.863034333E1,-2.123789124E-2
3.864028233E1,-1.853611216E-2
3.865022133E1,-2.354907632E-2
3.866016033E1,-2.151395291E-2
3.867010033E1,-8.455950916E-3
3.868003933E1,-1.448464952E-2
3.868997833E1,-2.461853206E-2
3.869991733E1,-7.367126271E-3
3.870985633E1,-4.124625921E-2
3.871979533E1,-2.909969196E-2
3.872973433E1,-2.264224626E-2
3.873967333E1,-3.752085194E-3
3.874961233E1,-2.943386033E-2
3.875955233E1,-1.298673905E-2
3.876949133E1,2.496030182E-3
3.877943033E1,-9.956565723E-3
3.878936933E1,-1.689823397E-2
3.879930833E1,-1.527387746E-2
3.880924733E1,7.078127638E-3
3.881918633E1,-1.940544695E-3
3.882912533E1,-4.715779424E-3
3.883906433E1,-5.240713209E-3
3.884900433E1,-1.686249286E-2
3.885894333E1,-1.983770236E-2
3.886888233E1,-4.319045842E-3
3.887882133E1,-1.342016391E-2
3.888876033E1,-3.216027081E-2
3.889869933E1,-2.275970221E-2
3.890863833E1,-1.025850132E-2
3.891857733E1,-1.581525654E-2
3.892851633E1,-3.282151781E-2
3.893845633E1,-2.069819324E-2
3.894839533E1,-1.948292255E-3
3.895833433E1,-1.239953242E-2
3.896827333E1,-1.944615819E-2
3.897821233E1,-1.963736214E-2
3.898815133E1,5.009309649E-3
3.899809033E1,-1.411788292E-2
3.900802933E1,-1.917645536E-2
3.901796833E1,-4.413624555E-3
3.902790833E1,-1.509144433E-2
3.903784733E1,-2.514236949E-2
3.904778633E1,-2.612864859E-2
3.905772533E1,-2.601046175E-2
3.906766433E1,-1.003331043E-2
3.907760333E1,-1.283229947E-2
3.908754233E1,-2.726344697E-2
3.909748133E1,-1.385329641E-2
3.910742033E1,-1.334583119E-2
3.911736033E1,-3.123758018E-2
3.912729933E1,-2.171619348E-2
3.913723833E1,-2.947069779E-3
3.914717733E1,4.626024663E-3
3.915711633E1,-2.026191786E-2
3.916705533E1,1.262340769E-3
3.917699433E1,-9.552303851E-3
3.918693333E1,-6.880418658E-3
3.919687333E1,-4.550814852E-3
3.920681233E1,-1.927848928E-2
3.921675133E1,-2.312047541E-2
3.922669033E1,-7.285045981E-3
3.923662933E1,-1.543942675E-2
3.924656833E1,-1.360069670E-2
3.925650733E1,-3.991601765E-3
3.926644633E1,-9.897362664E-3
3.927638533E1,3.779128566E-3
3.928632533E1,-2.191470645E-2
3.929626433E1,-1.670834564E-2
3.930620333E1,-2.463972822E-2
3.931614233E1,8.328773975E-3
3.932608133E1,-2.234564625E-2
3.933602033E1,-1.093056567E-2
3.934595933E1,-1.645026416E-2
3.935589833E1,-1.074060425E-2
3.936583733E1,-2.349754773E-2
3.937577733E1,-1.441455603E-2
3.938571633E1,-9.040891752E-3
3.939565533E1,-7.534575909E-3
3.940559433E1,-1.625452861E-2
3.941553333E1,-1.525319293E-3
3.942547233E1,-2.275334336E-2
3.943541171E1,-8.144732863E-3
3.944535071E1,-2.569193467E-2
3.945528971E1,-1.715068750E-2
3.946522971E1,-6.481857821E-3
3.947516871E1,-7.348634452E-3
3.948510771E1,-5.806138963E-3
3.949504671E1,-1.474594697E-3
3.950498571E1,-2.545504935E-2
3.951492471E1,-9.603101537E-3
3.952486371E1,-1.446542680E-2
3.953480271E1,-1.095220037E-2
3.954474271E1,-1.000232019E-2
3.955468171E1,-1.669511631E-2
3.956462071E1,-1.899563022E-2
3.957455971E1,-1.513237484E-2
3.958449871E1,-5.029921085E-3
3.959443771E1,-1.766151488E-2
3.960437671E1,-2.074679822E-2
3.961431571E1,-1.155146688E-2
3.962425471E1,-1.695261307E-2
3.963419471E1,-2.442301579E-2
3.964413371E1,-2.640273683E-2
3.965407271E1,-9.751109183E-3
3.966401171E1,-1.033488058E-2
3.967395071E1,-2.600549161E-3
3.968388971E1,-1.054157965E-2
3.969382871E1,-9.291152582E-3
3.970376771E1,-8.019894809E-3
3.971370771E1,-2.655834585E-2
3.972364671E1,-1.224399649E-2
3.973358571E1,-1.760962084E-3
3.974352471E1,-2.178241320E-2
3.975346371E1,2.142639086E-3
3.976340271E1,9.789554626E-3
3.977334171E1,-1.015537106E-2
3.978328071E1,-1.861607283E-3
3.979322071E1,-1.483467847E-2
3.980315971E1,-2.061757475E-2
3.981309871E1,-1.584471188E-2
3.982303771E1,-1.379299700E-2
3.983297671E1,-1.917104669E-2
3.984291571E1,-1.091097750E-2
3.985285471E1,-1.353593878E-2
3.986279371E1,-2.724437043E-3
3.987273271E1,4.760876074E-3
3.988267271E1,-1.844898865E-2
3.989261171E1,9.327770770E-4
3.990255071E1,-2.784809545E-3
3.991248971E1,-1.526364483E-2
3.992242871E1,-1.452470295E-2
3.993236771E1,-2.098075993E-2
3.994230671E1,-1.512462728E-2
3.995224571E1,-8.388707936E-3
3.996218571E1,-2.236676931E-2
3.997212471E1,-1.747067638E-2
3.998206371E1,-3.123144060E-4
3.999200271E1,-1.991247363E-2
4.000194171E1,-2.560919657E-2
4.001188071E1,7.845574692E-3
4.002181971E1,-7.515864819E-3
4.003175871E1,-1.348565273E-2
4.004169871E1,-2.664393447E-2
4.005163771E1,-6.472429186E-3
4.006157671E1,-5.804823339E-3
