Time (s),Linear Acceleration x (m/s^2)
1.013104164E-2,-7.913831798E-2
2.006804163E-2,7.858469630E-2
3.000504163E-2,9.608492852E-2
3.994204162E-2,9.529286834E-2
4.987904162E-2,-2.586623652E-2
5.981604161E-2,1.942377431E-2
6.975204160E-2,1.062972003E-1
7.968904171E-2,9.909936919E-2
8.962604171E-2,2.319444269E-3
9.956304170E-2,4.363923222E-3
1.095000417E-1,1.103613715E-1
1.194370417E-1,1.057203542E-1
1.293730417E-1,-2.104463163E-2
1.393100417E-1,3.548052999E-2
1.492470417E-1,1.074198292E-1
1.591840417E-1,7.963169508E-2
1.691210417E-1,-4.379806635E-2
1.790580417E-1,9.026548714E-2
1.889950417E-1,9.431994648E-2
1.989310416E-1,-1.709746870E-2
2.088680416E-1,5.144939471E-2
2.188050416E-1,9.846188564E-2
2.287420416E-1,2.749059303E-3
2.386790416E-1,2.630919965E-2
2.486160416E-1,1.008894486E-1
2.585530416E-1,-1.791696511E-3
2.684890417E-1,4.619368888E-2
2.784260417E-1,9.292660980E-2
2.883630417E-1,-1.641508036E-2
2.983000417E-1,8.540833301E-2
3.082370417E-1,4.441433547E-2
3.181740417E-1,3.283811842E-2
3.281110417E-1,8.392970008E-2
3.380470417E-1,1.954212561E-3
3.479840417E-1,8.046181697E-2
3.579210417E-1,3.328956915E-3
3.678580417E-1,7.434531877E-2
3.777950417E-1,2.046420411E-2
3.877320417E-1,6.922436384E-2
3.976690416E-1,1.907094967E-2
4.076050416E-1,4.238355179E-2
4.175420416E-1,4.367078891E-2
4.274790416E-1,3.635937564E-2
4.374160416E-1,4.309317537E-2
4.473530416E-1,3.928453663E-2
4.572900416E-1,3.359096571E-2
4.672270416E-1,3.995176789E-2
4.771628333E-1,3.571028902E-2
4.870998333E-1,4.395705580E-2
4.970368333E-1,3.870881430E-2
5.069738333E-1,4.103332006E-2
5.169108333E-1,4.004631006E-2
5.268478333E-1,3.399882727E-2
5.367848333E-1,3.587625858E-2
5.467208333E-1,4.275929935E-2
5.566578333E-1,3.233965242E-2
5.665948333E-1,4.350946971E-2
5.765318333E-1,3.395909362E-2
5.864688333E-1,2.349115234E-2
5.964058334E-1,2.521030683E-2
6.063428334E-1,2.664028910E-2
6.162788334E-1,3.785833678E-2
6.262158334E-1,3.551434334E-2
6.361528334E-1,2.816287665E-2
6.460898333E-1,2.839279099E-2
6.560268333E-1,3.520659707E-2
6.659638333E-1,3.620419602E-2
6.759008333E-1,3.945503779E-2
6.858368333E-1,3.209575958E-2
6.957738333E-1,2.064637229E-2
7.057108333E-1,3.192556906E-2
7.156478333E-1,3.303262970E-2
7.255848333E-1,2.100455993E-2
7.355218333E-1,2.830515585E-2
7.454588333E-1,2.675139533E-2
7.553948333E-1,2.415594421E-2
7.653318333E-1,3.813849150E-2
7.752688333E-1,3.254038551E-2
7.852058334E-1,2.808402146E-2
7.951428334E-1,2.802714815E-2
8.050798334E-1,3.078931801E-2
8.150168334E-1,2.370362554E-2
8.249538334E-1,3.246243482E-2
8.348898333E-1,3.680589278E-2
8.448268333E-1,2.923303588E-2
8.547638333E-1,2.087494360E-2
8.647008333E-1,2.212057413E-2
8.746378333E-1,2.700167444E-2
8.845748333E-1,2.612602648E-2
8.945108333E-1,2.603241622E-2
9.044478333E-1,2.977655285E-2
9.143848333E-1,1.972624895E-2
9.243218333E-1,2.267759451E-2
9.342588333E-1,2.254193910E-2
9.441958333E-1,1.807526934E-2
9.541328333E-1,3.118959647E-2
9.640698333E-1,2.722523907E-2
9.740058333E-1,2.403043007E-2
9.839428334E-1,2.645019064E-2
9.938798334E-1,1.560601758E-2
1.003816833E0,2.421098113E-2
1.013753833E0,2.684801144E-2
1.023690833E0,2.435529772E-2
1.033627833E0,1.966551100E-2
1.043563833E0,1.808229513E-2
1.053500833E0,2.069660353E-2
1.063437833E0,1.943531343E-2
1.073374833E0,2.167555533E-2
1.083311833E0,1.680331721E-2
1.093248833E0,2.103576944E-2
1.103185833E0,2.217320820E-2
1.113121833E0,1.748692981E-2
1.123058833E0,2.890997722E-2
1.132995833E0,2.151673034E-2
1.142932833E0,3.204053993E-2
1.152869833E0,3.441666565E-2
1.162806833E0,2.739888310E-2
1.172743833E0,2.636959956E-2
1.182679833E0,2.947629833E-2
1.192616833E0,2.042488159E-2
1.202553833E0,2.584453787E-2
1.212490833E0,1.521753405E-2
1.222427833E0,1.712342486E-2
1.232364833E0,2.515761794E-2
1.242301833E0,1.659062474E-2
1.252237833E0,1.651389831E-2
1.262174833E0,1.845695548E-2
1.272111833E0,1.795753931E-2
1.282048833E0,1.853631316E-2
1.291985833E0,1.597493120E-2
1.301922833E0,1.641369165E-2
1.311859833E0,2.063547271E-2
1.321795833E0,1.976897931E-2
1.331732833E0,1.930418048E-2
1.341669833E0,1.838379219E-2
1.351606833E0,1.726902966E-2
1.361543833E0,1.541871482E-2
1.371480833E0,1.737726711E-2
1.381417833E0,1.266188968E-2
1.391353833E0,1.991577183E-2
1.401290833E0,1.410679149E-2
1.411227833E0,1.890606732E-2
1.421164833E0,2.296562470E-2
1.431101833E0,1.628603049E-2
1.441038833E0,8.731117230E-3
1.450975833E0,1.410711125E-2
1.460911833E0,2.675140447E-2
1.470848667E0,1.770931587E-2
1.480785667E0,1.482685782E-2
1.490722667E0,1.904344034E-2
1.500659667E0,1.338214788E-2
1.510596667E0,1.945876624E-2
1.520533667E0,2.080879698E-2
1.530469667E0,2.247864299E-2
1.540406667E0,1.384257043E-2
1.550343667E0,1.802137446E-2
1.560280667E0,1.650518230E-2
1.570217667E0,1.588661998E-2
1.580154667E0,1.518550227E-2
1.590091667E0,1.804880155E-2
1.600027667E0,1.430800879E-2
1.609964667E0,9.315619525E-3
1.619901667E0,8.023649817E-3
1.629838667E0,1.787521234E-2
1.639775667E0,1.041404639E-2
1.649712667E0,1.909911680E-2
1.659649667E0,2.416923749E-2
1.669585667E0,1.930249027E-2
1.679522667E0,1.668161290E-2
1.689459667E0,1.696524854E-2
1.699396667E0,1.027303713E-2
1.709333667E0,9.763589334E-3
1.719270667E0,1.721941056E-2
1.729207667E0,1.969922385E-2
1.739143667E0,2.330024075E-2
1.749080667E0,2.276735840E-2
1.759017667E0,1.856553096E-2
1.768954667E0,1.215182975E-2
1.778891667E0,4.380286289E-3
1.788828667E0,8.561091162E-3
1.798765667E0,1.751166170E-2
1.808701667E0,8.664687378E-3
1.818638667E0,1.213323743E-2
1.828575667E0,1.800335772E-2
1.838512667E0,1.655213362E-2
1.848449667E0,1.529883776E-2
1.858386667E0,1.280230508E-2
1.868322667E0,1.490252445E-2
1.878259667E0,1.891215208E-2
1.888196667E0,1.340581996E-2
1.898133667E0,1.778322833E-2
1.908070667E0,1.509476993E-2
1.918007667E0,1.308918410E-2
1.927944667E0,1.176965939E-2
1.937880667E0,1.112411764E-2
1.947817667E0,1.911479465E-2
1.957754667E0,1.583252409E-2
1.967691667E0,1.304781505E-2
1.977628667E0,6.262824778E-3
1.987565667E0,1.871807020E-2
1.997502667E0,1.659850935E-2
2.007438667E0,9.623932242E-3
2.017375667E0,1.044745775E-2
2.027312667E0,1.599679431E-2
2.037249667E0,1.192046273E-2
2.047186667E0,1.837759780E-2
2.057123667E0,1.234443155E-2
2.067060667E0,8.699734127E-3
2.076996667E0,6.281161280E-3
2.086933667E0,2.794640176E-3
2.096870667E0,1.513851441E-2
2.106807667E0,1.087409436E-2
2.116744667E0,1.141692610E-2
2.126681667E0,1.474798436E-2
2.136618667E0,1.788879798E-2
2.146554667E0,8.456599591E-3
2.156491667E0,1.608214539E-2
2.166428667E0,2.224321034E-2
2.176365667E0,1.675400874E-2
2.186302667E0,6.549292663E-3
2.196239667E0,1.467043567E-2
2.206176667E0,1.172212335E-2
2.216112667E0,3.839464523E-3
2.226049667E0,1.129186878E-2
2.235986667E0,1.170101856E-2
2.245923667E0,9.268512893E-3
2.255860667E0,1.047073698E-2
2.265797667E0,9.918111144E-3
2.275734667E0,1.023620881E-2
2.285670667E0,1.180184648E-2
2.295607667E0,1.598961320E-2
2.305544667E0,1.545874083E-2
2.315481667E0,8.744739415E-3
2.325418667E0,8.541786214E-3
2.335355667E0,1.687312748E-2
2.345291667E0,1.125538764E-2
2.355228667E0,1.270688583E-2
2.365165667E0,1.463334239E-2
2.375102667E0,1.929644206E-2
2.385039667E0,9.826711854E-3
2.394976667E0,9.070538962E-3
2.404913667E0,1.353855176E-2
2.414849667E0,1.844415556E-2
2.424786667E0,1.401115296E-2
2.434723667E0,1.661732093E-2
2.444660667E0,8.127465304E-3
2.454597667E0,9.836387169E-3
2.464534667E0,1.106293201E-2
2.474472458E0,1.297568416E-2
2.484408458E0,9.405447375E-3
2.494345458E0,1.425045026E-2
2.504282458E0,1.102534538E-2
2.514219458E0,1.344936345E-2
2.524156458E0,1.276088121E-2
2.534093458E0,7.994541647E-3
2.544029458E0,7.621553242E-3
2.553966458E0,8.008821644E-3
2.563903458E0,1.041670505E-2
2.573840458E0,4.756582025E-3
2.583777458E0,4.229126628E-3
2.593714458E0,1.098591322E-2
2.603651458E0,1.005474413E-2
2.613587458E0,1.676243238E-2
2.623524458E0,1.165852575E-2
2.633461458E0,1.141796764E-2
2.643398458E0,1.162516007E-2
2.653335458E0,1.000515243E-2
2.663272458E0,8.521220461E-4
2.673209458E0,1.312164528E-2
2.683145458E0,9.292760566E-3
2.693082458E0,6.669973712E-3
2.703019458E0,9.540901780E-3
2.712956458E0,1.738008108E-2
2.722893458E0,2.041135076E-2
2.732830458E0,4.863092713E-3
2.742766458E0,1.328240717E-2
2.752703458E0,2.140245382E-3
2.762640458E0,3.646871857E-3
2.772577458E0,1.420400145E-2
2.782514458E0,1.775084023E-2
2.792451458E0,1.047676692E-2
2.802388458E0,1.212533455E-2
2.812324458E0,1.366000939E-2
2.822261458E0,1.075025216E-2
2.832198458E0,1.001500133E-2
2.842135458E0,1.047439149E-2
2.852072458E0,1.346186187E-2
2.862009458E0,1.821235914E-2
2.871946458E0,7.277462874E-3
2.881882458E0,7.797243800E-3
2.891819458E0,9.720886387E-3
2.901756458E0,1.897808857E-2
2.911693458E0,1.002199972E-2
2.921630458E0,1.190655733E-2
2.931567458E0,9.285835270E-3
2.941504458E0,1.327646859E-2
2.951440458E0,1.706926502E-2
2.961377458E0,1.471205140E-2
2.971314458E0,-1.069839466E-3
2.981251458E0,7.542323470E-3
2.991188458E0,7.775974553E-3
3.001125458E0,1.030155145E-2
3.011061458E0,4.482256249E-4
3.020998458E0,8.212396111E-3
3.030935458E0,4.838278592E-3
3.040872458E0,1.903433148E-2
3.050809458E0,1.236605711E-2
3.060746458E0,1.121768223E-2
3.070683458E0,2.646468077E-3
3.080619458E0,4.424734265E-3
3.090556458E0,1.137287099E-2
3.100493458E0,8.502180465E-3
3.110430458E0,1.125956291E-2
3.120367458E0,1.446078558E-2
3.130304458E0,8.610609770E-3
3.140240458E0,6.757243406E-3
3.150177458E0,7.016275059E-3
3.160114458E0,9.567671064E-3
3.170051458E0,8.878887333E-3
3.179988458E0,8.490522578E-3
3.189925458E0,3.792686798E-3
3.199862458E0,1.238030970E-2
3.209798458E0,5.271210093E-3
3.219735458E0,7.838996574E-3
3.229672458E0,2.993573416E-3
3.239609458E0,1.494847991E-2
3.249546458E0,1.157474611E-2
3.259483458E0,1.333185269E-2
3.269419458E0,8.846654557E-3
3.279356458E0,1.051340338E-2
3.289293458E0,7.970431019E-3
3.299230458E0,5.748160165E-3
3.309167458E0,7.819189131E-4
3.319104458E0,2.211526595E-3
3.329041458E0,7.800843492E-3
3.338977458E0,4.616687391E-3
3.348914458E0,3.717824165E-3
3.358851458E0,2.733226139E-3
3.368788458E0,6.379568093E-3
3.378725458E0,1.290367205E-2
3.388662458E0,4.694966991E-3
3.398599458E0,5.583396591E-3
3.408535458E0,2.650579400E-3
3.418472458E0,1.134135084E-2
3.428409458E0,6.273167040E-3
3.438346458E0,-9.896412492E-5
3.448283458E0,5.943566803E-3
3.458220458E0,6.472155098E-3
3.468156458E0,8.191108592E-3
3.478093417E0,6.917786021E-3
3.488030417E0,-2.258596681E-3
3.497967417E0,-4.810559135E-3
3.507904417E0,1.002528878E-2
3.517841417E0,1.156597529E-3
3.527777417E0,7.052655704E-3
3.537714417E0,4.438000135E-3
3.547651417E0,9.267471358E-4
3.557588417E0,4.651240781E-3
3.567525417E0,3.301612046E-3
3.577462417E0,1.854663715E-3
3.587399417E0,2.861353252E-3
3.597335417E0,4.816168807E-3
3.607272417E0,-6.647187844E-4
3.617209417E0,5.129853655E-3
3.627146417E0,7.279984485E-3
3.637083417E0,7.078675814E-3
3.647020417E0,6.467093602E-3
3.656956417E0,9.505781941E-3
3.666893417E0,3.583996017E-3
3.676830417E0,4.229071811E-3
3.686767417E0,1.128075907E-2
3.696704417E0,-1.724051535E-3
3.706641417E0,1.543144165E-2
3.716578417E0,1.384227807E-2
3.726514417E0,7.820303757E-3
3.736451417E0,9.431650210E-3
3.746388417E0,5.200879052E-3
3.756325417E0,4.015611894E-3
3.766262417E0,5.485583637E-3
3.776199417E0,1.540571390E-2
3.786135417E0,7.660144866E-3
3.796072417E0,1.129296513E-2
3.806009417E0,4.319319930E-3
3.815946417E0,6.605234072E-3
3.825883417E0,1.056337880E-2
3.835820417E0,1.086906027E-3
3.845757417E0,1.243816059E-2
3.855693417E0,5.538537484E-3
3.865630417E0,9.596413784E-3
3.875567417E0,1.320710599E-2
3.885504417E0,1.688469401E-2
3.895441417E0,5.425448678E-3
3.905378417E0,6.099303737E-3
3.915314417E0,9.925118666E-3
3.925251417E0,2.844140511E-3
3.935188417E0,3.547377829E-3
3.945125417E0,5.382307190E-3
3.955062417E0,2.792008929E-3
3.964999417E0,7.350388616E-3
3.974936417E0,3.286592010E-3
3.984872417E0,-4.057145398E-3
3.994809417E0,8.165344298E-3
4.004746417E0,-2.635997906E-4
4.014683417E0,1.272834694E-2
4.024620417E0,7.382000126E-3
4.034557417E0,1.046922036E-2
4.044493417E0,9.320406932E-3
4.054430417E0,7.116171084E-3
4.064367417E0,1.005520094E-3
4.074304417E0,4.745380953E-3
4.084241417E0,1.147040986E-3
4.094178417E0,2.578987554E-3
4.104115417E0,1.174913932E-2
4.114051417E0,5.885679368E-3
4.123988417E0,9.534415025E-3
4.133925417E0,1.226230558E-2
4.143862417E0,-4.100853335E-3
4.153799417E0,1.147053776E-2
4.163736417E0,1.830611559E-2
4.173672417E0,1.469666591E-2
4.183609417E0,4.196875580E-3
4.193546417E0,7.399834134E-3
4.203483417E0,8.577189278E-3
4.213420417E0,3.461624756E-3
4.223357417E0,1.972868834E-3
4.233294417E0,9.736052603E-3
4.243230417E0,7.129857223E-3
4.253167417E0,1.369381361E-3
4.263104417E0,2.489214521E-3
4.273041417E0,5.982304607E-3
4.282978417E0,5.936696324E-3
4.292915417E0,5.242887642E-3
4.302851417E0,-1.309812851E-3
4.312788417E0,1.502478607E-3
4.322725417E0,3.305230010E-3
4.332662417E0,7.010062393E-3
4.342599417E0,1.385775492E-2
4.352536417E0,5.429176278E-3
4.362472417E0,4.958566781E-3
4.372409417E0,-6.281627230E-3
4.382346417E0,4.472571798E-4
4.392283417E0,-5.091097578E-4
4.402220417E0,6.501336358E-3
4.412157417E0,6.788672190E-3
4.422093417E0,5.424845684E-3
4.432030417E0,5.102481376E-3
4.441967417E0,9.377563465E-3
4.451904417E0,4.639783893E-3
4.461841417E0,6.841260586E-3
4.471778417E0,1.257315818E-3
4.481715042E0,4.335765224E-3
4.491651042E0,4.992754720E-3
4.501588042E0,7.170367464E-3
4.511525042E0,3.920503277E-3
4.521462042E0,-4.447355680E-4
4.531399042E0,2.286261320E-4
4.541336042E0,1.886457950E-3
4.551272042E0,7.630451974E-3
4.561209042E0,6.860081311E-3
4.571146042E0,1.718204319E-3
4.581083042E0,3.823183682E-3
4.591020042E0,5.805481151E-3
4.600957042E0,3.721898943E-3
4.610893042E0,3.802846335E-3
4.620830042E0,1.283573471E-3
4.630767042E0,5.786824878E-3
4.640704042E0,1.770315802E-2
4.650641042E0,1.583334636E-3
4.660578042E0,1.005666275E-3
4.670515042E0,1.211875644E-2
4.680451042E0,7.553999629E-3
4.690388042E0,8.955303133E-3
4.700325042E0,2.038924098E-3
4.710262042E0,-1.478687748E-3
4.720199042E0,-4.198849015E-4
4.730136042E0,1.819726601E-3
4.740072042E0,3.311442677E-3
4.750009042E0,-2.937604599E-3
4.759946042E0,6.184344180E-3
4.769883042E0,-1.717747506E-3
4.779820042E0,1.095749941E-3
4.789757042E0,7.436927408E-5
4.799693042E0,9.408553708E-3
4.809630042E0,6.955628470E-4
4.819567042E0,5.253175087E-3
4.829504042E0,7.163076717E-3
4.839441042E0,5.523097180E-3
4.849378042E0,-3.779311292E-4
4.859314042E0,1.637896467E-3
4.869251042E0,1.583444271E-3
4.879188042E0,4.178000037E-3
4.889125042E0,3.733849190E-3
4.899062042E0,5.094478000E-3
4.908999042E0,8.671164997E-3
4.918936042E0,5.003371071E-3
4.928872042E0,9.396548644E-3
4.938809042E0,5.389725845E-3
4.948746042E0,-9.902990609E-4
4.958683042E0,3.473940454E-3
4.968620042E0,2.512036934E-3
4.978557042E0,5.933717899E-3
4.988493042E0,-9.080360457E-4
4.998430042E0,1.002914429E-2
5.008367042E0,4.993302897E-3
5.018304042E0,-5.465538651E-3
5.028241042E0,2.565045599E-3
5.038178042E0,1.087092407E-2
5.048114042E0,8.011745252E-3
5.058051042E0,3.997850977E-3
5.067988042E0,6.730254851E-3
5.077925042E0,4.378760532E-3
5.087862042E0,7.803529557E-3
5.097799042E0,7.729653642E-4
5.107735042E0,9.277301989E-3
5.117672042E0,7.265969440E-3
5.127609042E0,2.823364623E-3
5.137546042E0,-5.463747941E-3
5.147483042E0,-4.546392895E-4
5.157420042E0,3.354712073E-3
5.167356042E0,7.994075697E-3
5.177293042E0,1.099678539E-2
5.187230042E0,3.526547123E-3
5.197167042E0,6.180360764E-3
5.207104042E0,6.942435689E-3
5.217041042E0,7.519464511E-3
5.226977042E0,1.054260291E-2
5.236914042E0,1.187363019E-2
5.246851042E0,2.783530466E-3
5.256788042E0,1.277506985E-3
5.266725042E0,4.372931588E-3
5.276662042E0,5.368036330E-3
5.286599042E0,5.579394903E-3
5.296535042E0,6.077979673E-3
5.306472042E0,1.079660961E-2
5.316409042E0,1.287118345E-2
5.326346042E0,3.413494863E-3
5.336283042E0,3.783386070E-3
5.346220042E0,4.330630638E-3
5.356156042E0,2.640054412E-3
5.366093042E0,3.681516610E-3
5.376030042E0,5.108365137E-3
5.385967042E0,5.000392646E-3
5.395904042E0,9.422221575E-3
5.405841042E0,1.945350375E-3
5.415777042E0,4.992754720E-3
5.425714042E0,1.112957200E-2
5.435651042E0,1.106156157E-2
5.445588042E0,7.952030562E-3
5.455525042E0,4.766906016E-3
5.465462042E0,4.888308831E-3
5.475397792E0,4.637792185E-3
5.485334792E0,4.030047208E-3
5.495271792E0,4.900880344E-3
5.505208792E0,-9.955250099E-4
5.515145792E0,4.285972528E-3
5.525082792E0,-1.703915186E-4
5.535018792E0,4.553994276E-3
5.544955792E0,3.255071864E-4
5.554892792E0,4.031454194E-3
5.564829792E0,8.241449464E-3
5.574766792E0,5.948427301E-3
5.584703792E0,1.446235701E-3
5.594639792E0,1.271299800E-2
5.604576792E0,4.938704520E-3
5.614513792E0,3.657707479E-3
5.624450792E0,2.380218767E-3
5.634387792E0,1.578035597E-3
5.644324792E0,1.010687571E-2
5.654260792E0,1.308389420E-2
5.664197792E0,8.032612503E-4
5.674134792E0,6.475224886E-3
5.684071792E0,1.368127864E-2
5.694008792E0,3.556605466E-3
5.703945792E0,8.526665680E-3
5.713881792E0,8.103838898E-3
5.723818792E0,-9.406890906E-4
5.733755792E0,4.259057064E-3
5.743692792E0,-6.915246136E-4
5.753629792E0,1.016869174E-2
5.763566792E0,-2.073751576E-4
5.773502792E0,4.590996187E-3
5.783439792E0,7.147344053E-3
5.793376792E0,8.630106580E-3
5.803313792E0,2.182381880E-3
5.813250792E0,-1.545857638E-3
5.823187792E0,5.489439145E-3
5.833124792E0,6.419347432E-3
5.843060792E0,9.228971098E-3
5.852997792E0,2.987689655E-3
5.862934792E0,-6.959904246E-3
5.872871792E0,-5.504714996E-3
5.882808792E0,1.290677838E-2
5.892745792E0,-3.526145127E-3
5.902681792E0,-2.311367802E-3
5.912618792E0,7.411163114E-4
5.922555792E0,-7.818074506E-3
5.932492792E0,5.115820337E-3
5.942429792E0,-7.195729762E-4
5.952366792E0,4.778033998E-3
5.962302792E0,2.997958828E-3
5.972239792E0,6.013568938E-3
5.982176792E0,9.968278427E-3
5.992113792E0,6.327144150E-3
6.002050792E0,4.507691637E-3
6.011986792E0,-5.618077889E-4
6.021923792E0,5.144453421E-3
6.031860792E0,8.396693040E-3
6.041797792E0,2.970257644E-3
6.051734792E0,-3.530877717E-3
6.061671792E0,3.773792982E-3
6.071608792E0,1.944564655E-4
6.081544792E0,6.486754864E-5
6.091481792E0,5.711779520E-3
6.101418792E0,-1.176569425E-3
6.111355792E0,4.839356672E-3
6.121292792E0,7.529916409E-3
6.131229792E0,-1.566523891E-3
6.141165792E0,2.493307572E-3
6.151102792E0,-2.635687273E-3
6.161039792E0,6.130549796E-3
6.170976792E0,6.115091220E-4
6.180913792E0,3.791298084E-3
6.190849792E0,5.973661691E-4
6.200786792E0,-4.056597222E-3
6.210723792E0,-3.038925882E-3
6.220660792E0,4.819055870E-3
6.230597792E0,6.619212572E-3
6.240534792E0,4.595619142E-3
6.250470792E0,5.689432193E-3
6.260407792E0,-2.888816893E-3
6.270344792E0,-4.502758048E-3
6.280281792E0,1.939082891E-4
6.290218792E0,4.963409007E-3
6.300155792E0,1.109695550E-2
6.310091792E0,-1.349135377E-3
6.320028792E0,-6.700415779E-3
6.329965792E0,2.085665278E-3
6.339902792E0,-4.620689079E-3
6.349839792E0,-2.255545165E-3
6.359776792E0,3.339984398E-3
6.369712792E0,7.648687977E-3
6.379649792E0,3.186220899E-3
6.389586792E0,3.033407573E-3
6.399523792E0,7.677375879E-3
6.409460792E0,6.646054946E-3
6.419397792E0,-7.156297602E-3
6.429334792E0,7.723495793E-3
6.439270792E0,-4.389066249E-4
6.449207792E0,-7.143598180E-3
6.459144792E0,5.717188194E-3
6.469081792E0,1.031534722E-2
6.479019417E0,-8.135304227E-4
6.488955417E0,-2.315113675E-3
6.498892417E0,-5.381448381E-4
6.508829417E0,4.114795290E-3
6.518766417E0,6.142481770E-3
6.528703417E0,-1.430101041E-3
6.538640417E0,-5.684918873E-3
6.548576417E0,4.003168289E-3
6.558513417E0,-2.804068811E-3
6.568450417E0,-1.318821218E-3
6.578387417E0,6.051045936E-3
6.588324417E0,1.356002200E-2
6.598261417E0,-1.135766823E-3
6.608197417E0,-1.926420014E-3
6.618134417E0,1.949571334E-3
6.628071417E0,9.655397572E-4
6.638008417E0,2.846972756E-3
6.647945417E0,9.061265644E-3
6.657882417E0,5.504349545E-3
6.667818417E0,7.551185656E-3
6.677755417E0,2.119615674E-3
6.687692417E0,-3.099133931E-3
6.697629417E0,-6.620071381E-3
6.707566417E0,7.238286529E-3
6.717503417E0,7.926978897E-3
6.727439417E0,6.793167237E-3
6.737376417E0,6.519280002E-3
6.747313417E0,-8.182264678E-4
6.757250417E0,1.888102479E-4
6.767187417E0,2.381845023E-3
6.777124417E0,-1.187843587E-3
6.787060417E0,3.360376563E-3
6.796997417E0,-5.933242813E-3
6.806934417E0,3.087677043E-3
6.816871417E0,-2.775929086E-3
6.826808417E0,2.356025912E-3
6.836745417E0,2.009267751E-3
6.846681417E0,5.939638205E-3
6.856618417E0,5.549574103E-3
6.866555417E0,9.352310803E-3
6.876492417E0,2.230657954E-3
6.886429417E0,2.420546282E-3
6.896366417E0,-4.468624927E-3
6.906302417E0,-6.940370891E-3
6.916239417E0,1.083361153E-3
6.926176417E0,2.554557156E-3
6.936113417E0,-2.324651945E-3
6.946050417E0,-4.318296667E-3
6.955987417E0,-2.654818632E-4
6.965923417E0,5.415252596E-3
6.975860417E0,3.534203321E-3
6.985797417E0,5.935216248E-3
6.995734417E0,8.007030934E-5
7.005671417E0,-2.166466489E-3
7.015607417E0,5.607370175E-3
7.025544417E0,-1.108796541E-3
7.035481417E0,3.669548091E-3
7.045418417E0,-1.426556166E-3
7.055355417E0,2.331029065E-4
7.065292417E0,7.531871572E-3
7.075228417E0,3.736736253E-3
7.085165417E0,8.967381287E-3
7.095102417E0,-7.284899801E-4
7.105039417E0,-4.069333188E-3
7.114976417E0,4.825633988E-3
7.124913417E0,6.098116022E-3
7.134849417E0,1.853896268E-3
7.144786417E0,-3.560205158E-3
7.154723417E0,1.030644849E-3
7.164660417E0,-6.094059516E-3
7.174597417E0,-2.783804554E-3
7.184534417E0,4.350054357E-3
7.194470417E0,3.905775603E-3
7.204407417E0,8.442776408E-3
7.214344417E0,-3.861428127E-3
7.224281417E0,3.181250766E-3
7.234218417E0,6.605654340E-3
7.244155417E0,-3.616027795E-3
7.254091417E0,-4.031326286E-3
7.264028417E0,6.008342989E-3
7.273965417E0,4.619757179E-3
7.283902417E0,-9.745663963E-4
7.293839417E0,1.631482802E-3
7.303775417E0,-5.649506673E-3
7.313712417E0,-3.603511099E-3
7.323649417E0,-5.032077245E-3
7.333586417E0,-9.449465945E-4
7.343523417E0,1.028773740E-2
7.353460417E0,1.739327386E-3
7.363396417E0,3.846937995E-3
7.373333417E0,-2.607328277E-3
7.383270417E0,8.959725089E-3
7.393207417E0,6.868998315E-3
7.403144417E0,-2.819088846E-4
7.413081417E0,2.497217897E-3
7.423017417E0,8.265423048E-3
7.432954417E0,2.735199574E-3
7.442891417E0,-3.368361667E-4
7.452828417E0,3.413549680E-3
7.462765417E0,2.886514552E-3
7.472702417E0,-5.105203986E-3
7.482638542E0,2.593459412E-3
7.492575542E0,6.057094149E-3
7.502512542E0,6.563481297E-3
7.512449542E0,2.937367056E-3
7.522386542E0,9.485554229E-3
7.532323542E0,-4.619830269E-3
7.542259542E0,-7.281610742E-4
7.552196542E0,-3.589368146E-3
7.562133542E0,6.223191619E-3
7.572070542E0,-2.457657829E-3
7.582007542E0,-1.821425948E-3
7.591944542E0,8.193739839E-3
7.601880542E0,3.393395059E-3
7.611817542E0,9.693020750E-3
7.621754542E0,2.956206053E-3
7.631691542E0,-9.170425851E-3
7.641628542E0,-5.155672766E-3
7.651564542E0,-6.209267937E-3
7.661501542E0,-4.375836924E-3
7.671438542E0,-1.782541964E-3
7.681375542E0,-1.113881791E-2
7.691312542E0,-8.413412422E-4
7.701249542E0,1.154651502E-2
7.711185542E0,6.652614791E-3
7.721122542E0,3.813480958E-4
7.731059542E0,-3.154262211E-3
7.740996542E0,1.685057916E-3
7.750933542E0,1.764598321E-3
7.760870542E0,-1.542696487E-3
7.770806542E0,-2.385060992E-3
7.780743542E0,2.264279444E-3
7.790680542E0,3.400375172E-3
7.800617542E0,1.606412865E-3
7.810554542E0,8.680557087E-4
7.820491542E0,-3.229344115E-3
7.830427542E0,-8.563064598E-4
7.840364542E0,-1.383305043E-3
7.850301542E0,-2.772164941E-3
7.860238542E0,-7.512155492E-3
7.870175542E0,1.614507604E-3
7.880111542E0,-1.604530793E-3
7.890048542E0,-7.982052360E-3
7.899985542E0,-5.757314712E-3
7.909922542E0,7.352343779E-3
7.919859542E0,1.165971346E-4
7.929796542E0,-8.524144068E-5
7.939732542E0,4.000884220E-3
7.949669542E0,2.286407501E-3
7.959606542E0,-5.320125706E-3
7.969543542E0,2.174013052E-3
7.979480542E0,-6.384611316E-4
7.989417542E0,1.447386872E-3
7.999353542E0,1.479491740E-3
8.009290542E0,2.787404247E-3
8.019227542E0,1.940160971E-3
8.029164542E0,4.178566486E-4
8.039101542E0,-1.609592289E-3
8.049038542E0,-2.393758725E-3
8.058974542E0,5.445109941E-3
8.068911542E0,1.939046346E-3
8.078848542E0,-5.924380627E-3
8.088785542E0,-4.773429316E-3
8.098722542E0,-1.840082221E-3
8.108658542E0,-2.375230361E-3
8.118595542E0,2.573633697E-3
8.128532542E0,-3.442931939E-3
8.138469542E0,2.328708451E-3
8.148406542E0,-2.619187161E-3
8.158343542E0,3.515949044E-3
8.168279542E0,-1.140444595E-3
8.178216542E0,4.123200662E-3
8.188153542E0,-4.184084795E-3
8.198090542E0,-9.325760789E-3
8.208027542E0,-2.201878689E-3
8.217964542E0,-1.007522766E-2
8.227900542E0,2.517774515E-3
8.237837542E0,5.473359302E-3
8.247774542E0,-5.245390981E-3
8.257711542E0,-1.375721935E-3
8.267648542E0,-2.258304320E-4
8.277584542E0,-1.402728762E-3
8.287521542E0,-4.857081044E-3
8.297458542E0,1.794693209E-3
8.307395542E0,-4.062718526E-4
8.317332542E0,-4.805917908E-3
8.327269542E0,-2.101525851E-3
8.337205542E0,2.779236417E-3
8.347142542E0,1.202607807E-3
8.357079542E0,-4.134730641E-3
8.367016542E0,-9.302719105E-3
8.376953542E0,-2.702985071E-3
8.386890542E0,-7.124740910E-3
8.396826542E0,-2.058384363E-3
8.406763542E0,1.053065266E-3
8.416700542E0,-4.287580512E-3
8.426637542E0,-7.645472009E-3
8.436574542E0,-6.907571666E-4
8.446510542E0,-3.547012378E-3
8.456447542E0,-5.091280304E-3
8.466384542E0,-4.578918032E-3
8.476321542E0,-9.171449114E-3
8.486257542E0,-1.112231780E-3
8.496194542E0,6.847327072E-3
8.506130542E0,-6.494977511E-4
8.516067542E0,-1.126583040E-2
8.526004542E0,4.195943680E-3
8.535941542E0,2.420802098E-3
8.545878542E0,-3.481943831E-3
8.555815542E0,-8.606352266E-3
8.565751542E0,3.485141527E-3
8.575688542E0,1.094141956E-3
8.585625542E0,6.435208004E-3
8.595562542E0,-2.555087060E-3
8.605499542E0,-8.740491048E-4
8.615435542E0,-2.521904111E-3
8.625372542E0,4.524776470E-3
8.635309542E0,-4.934319109E-3
8.645246542E0,9.640048631E-4
8.655183542E0,-7.559353486E-4
8.665120542E0,-3.365383241E-3
8.675056542E0,-4.004027098E-3
8.684993542E0,2.758734617E-3
8.694930542E0,-3.399388455E-3
8.704867542E0,-5.018171836E-3
8.714804542E0,4.833692182E-3
8.724741542E0,3.255455587E-3
8.734677542E0,1.838291511E-3
8.744614542E0,2.705817316E-3
8.754551542E0,-2.462554872E-3
8.764488542E0,-6.743593812E-3
8.774425542E0,-2.647692338E-4
8.784361542E0,3.251928985E-3
8.794298542E0,1.772309337E-3
8.804235542E0,-1.611456089E-3
8.814172542E0,-5.780210216E-3
8.824109542E0,-5.052743498E-3
8.834046542E0,-3.522655070E-3
8.843982542E0,5.217123348E-3
8.853919542E0,-7.738333102E-3
8.863856542E0,-5.590669066E-3
8.873793542E0,-3.757566959E-4
8.883730542E0,-9.864271078E-3
8.893667542E0,-1.784186494E-3
8.903603542E0,5.869690888E-4
8.913540542E0,5.297650471E-3
8.923477542E0,-5.808587484E-3
8.933414542E0,-8.009241913E-3
8.943351542E0,-4.691294208E-4
8.953287542E0,-6.835523006E-3
8.963224542E0,-7.368770801E-4
8.973161542E0,3.419634439E-3
8.983098542E0,3.793180156E-3
8.993035542E0,-3.894556258E-3
9.002972542E0,-2.768419068E-3
9.012908542E0,1.977656242E-3
9.022845542E0,-8.041767050E-3
9.032782542E0,-2.474285848E-3
9.042719542E0,7.836730778E-4
9.052656542E0,2.958325669E-5
9.062592542E0,-3.540744893E-3
9.072529542E0,-7.387043349E-4
9.082466542E0,-5.327909812E-4
9.092403542E0,-3.548803087E-3
9.102340542E0,-1.187715679E-2
9.112277542E0,-9.410216510E-3
9.122213542E0,-4.932601489E-3
9.132150542E0,-1.018409550E-2
9.142087542E0,1.683669202E-3
9.152024542E0,-1.021022525E-2
9.161961542E0,-1.132748198E-2
9.171897542E0,-5.990362801E-3
9.181834542E0,-1.519252807E-3
9.191771542E0,-6.090606004E-4
9.201708542E0,4.350438081E-3
9.211645542E0,-7.210530527E-4
9.221582542E0,2.007604949E-4
9.231518542E0,-1.316336151E-3
9.241455542E0,5.166051574E-3
9.251392542E0,-3.691895418E-3
9.261329542E0,-2.252731193E-3
9.271266542E0,4.433632996E-3
9.281202542E0,1.009850688E-3
9.291139542E0,-3.980820961E-3
9.301076542E0,-2.526326068E-3
9.311013542E0,-8.207608704E-3
9.320950542E0,-3.486128245E-3
9.330887542E0,-2.189964987E-4
9.340823542E0,-1.123356108E-2
9.350760542E0,-6.439757869E-3
9.360697542E0,-5.759416055E-3
9.370634542E0,-4.720840920E-3
9.380571542E0,-3.296532277E-3
9.390507542E0,-4.492196515E-3
9.400444542E0,-3.926569764E-3
9.410381542E0,-1.122811586E-3
9.420318542E0,-3.470377307E-3
9.430255542E0,6.955263019E-4
9.440192542E0,-9.045185801E-3
9.450128542E0,-7.057936471E-3
9.460065542E0,-2.751188055E-3
9.470002542E0,-2.941807285E-3
9.479939958E0,-4.523990750E-3
9.489876958E0,-1.632030979E-3
9.499812958E0,2.612791769E-4
9.509749958E0,-1.521134879E-3
9.519686958E0,-4.886445031E-3
9.529623958E0,-8.586617913E-3
9.539560958E0,-1.242460236E-3
9.549497958E0,-8.675130140E-3
9.559433958E0,-7.669354230E-3
9.569370958E0,-3.400704078E-4
9.579307958E0,-2.391712200E-3
9.589244958E0,3.341135569E-3
9.599181958E0,-1.726426966E-3
9.609117958E0,-1.764342505E-3
9.619054958E0,-2.733006869E-3
9.628991958E0,1.609373018E-3
9.638928958E0,3.105565868E-3
9.648865958E0,-6.578885056E-3
9.658802958E0,-3.239923920E-3
9.668738958E0,-9.608345758E-3
9.678675958E0,-3.109439649E-3
9.688612958E0,1.083726604E-3
9.698549958E0,-5.230115131E-3
9.708486958E0,-3.652499802E-3
9.718422958E0,-4.837565962E-3
9.728359958E0,5.518309772E-6
9.738296958E0,-1.135267982E-2
9.748233958E0,4.744686596E-3
9.758170958E0,4.904224221E-3
9.768107958E0,-6.632807348E-3
9.778043958E0,-4.033719990E-3
9.787980958E0,-8.451766502E-3
9.797917958E0,-3.293645214E-3
9.807854958E0,7.952999007E-3
9.817791958E0,9.496426396E-4
9.827727958E0,-3.623026181E-3
9.837664958E0,-5.875264015E-3
9.847601958E0,-2.440627813E-3
9.857538958E0,1.702051386E-3
9.867475958E0,-4.839813486E-3
9.877412958E0,-5.671068281E-3
9.887348958E0,-7.389382236E-3
9.897285958E0,-5.889425240E-4
9.907222958E0,-7.389875595E-3
9.917159958E0,-9.499642365E-3
9.927096958E0,2.058530543E-3
9.937032958E0,3.384350147E-3
9.946969958E0,-3.040168416E-3
9.956906958E0,-8.192204945E-3
9.966843958E0,7.758341543E-4
9.976780958E0,1.753872335E-3
9.986717958E0,-6.485092063E-3
9.996653958E0,6.148164533E-4
1.000659096E1,-5.303607322E-4
1.001652796E1,1.884447969E-3
1.002646496E1,-5.721390881E-3
1.003640196E1,-5.365368538E-3
1.004633796E1,-8.019602448E-3
1.005627496E1,-8.773948085E-3
1.006621196E1,-7.864870504E-3
1.007614896E1,-1.328980755E-3
1.008608596E1,-2.706913669E-3
1.009602296E1,-1.035085078E-2
1.010595896E1,-7.155676335E-3
1.011589596E1,6.692211404E-3
1.012583296E1,-3.333314918E-3
1.013576996E1,-6.514949407E-3
1.014570696E1,-5.544969421E-3
1.015564296E1,-6.537260190E-3
1.016557996E1,-1.661252439E-2
1.017551696E1,-2.062934227E-3
1.018545396E1,2.034081873E-3
1.019539096E1,-7.486793194E-3
1.020532696E1,-8.518717121E-3
1.021526396E1,2.544744797E-3
1.022520096E1,-5.328129083E-3
1.023513796E1,-2.881599236E-3
1.024507496E1,-1.649645716E-4
1.025501196E1,-2.113768458E-3
1.026494796E1,1.373291686E-3
1.027488496E1,-2.624303475E-3
1.028482196E1,-4.357984643E-3
1.029475896E1,-2.982664704E-3
1.030469596E1,-4.218400642E-3
1.031463196E1,1.023810916E-4
1.032456896E1,-9.135835916E-3
1.033450596E1,-1.401109815E-2
1.034444296E1,-7.777984533E-3
1.035437996E1,-7.777619082E-3
1.036431696E1,-1.836939342E-3
1.037425296E1,1.846715156E-3
1.038418996E1,1.029658131E-4
1.039412696E1,-7.059416547E-4
1.040406396E1,-2.375741992E-3
1.041400096E1,-6.060419753E-3
1.042393696E1,-2.897039540E-3
1.043387396E1,-1.133702025E-3
1.044381096E1,-2.325254939E-3
1.045374796E1,-2.628688887E-4
1.046368496E1,-4.865066148E-3
1.047362196E1,-2.932013199E-3
1.048355821E1,2.335578930E-3
1.049349521E1,-1.074645147E-2
1.050343221E1,-8.681361079E-3
1.051336921E1,3.299346250E-3
1.052330621E1,7.885993570E-3
1.053324221E1,-1.515963748E-3
1.054317921E1,-6.413354035E-3
1.055311621E1,-7.837699223E-3
1.056305321E1,-6.783866510E-4
1.057299021E1,-1.546953991E-3
1.058292621E1,3.430214245E-3
1.059286321E1,-4.269180056E-3
1.060280021E1,-6.059926394E-3
1.061273721E1,-1.369469069E-2
1.062267421E1,-1.009686235E-2
1.063261121E1,-7.887163013E-3
1.064254721E1,-3.469262682E-3
1.065248421E1,-3.580030873E-3
1.066242121E1,-4.302710183E-3
1.067235821E1,2.526033707E-3
1.068229521E1,-5.743902661E-3
1.069223121E1,-1.013404699E-2
1.070216821E1,1.156615801E-3
1.071210521E1,-4.007096887E-3
1.072204221E1,-1.043481315E-2
1.073197921E1,8.570556343E-4
1.074191521E1,1.752026808E-3
1.075185221E1,-6.679913979E-3
1.076178921E1,-1.169298777E-2
1.077172621E1,-3.620267026E-3
1.078166321E1,-9.524383396E-4
1.079160021E1,5.477836076E-3
1.080153621E1,-6.148621347E-3
1.081147321E1,-3.114738688E-3
1.082141021E1,-1.582969185E-3
1.083134721E1,4.717990402E-3
1.084128421E1,-6.168319155E-3
1.085122021E1,2.385024447E-3
1.086115721E1,-5.267098770E-3
1.087109421E1,2.150459737E-3
1.088103121E1,2.509222962E-3
1.089096821E1,-5.072843302E-3
1.090090421E1,-7.541537751E-3
1.091084121E1,-9.535200745E-3
1.092077821E1,-3.014623392E-3
1.093071521E1,-3.470212854E-3
1.094065221E1,-6.099121012E-3
1.095058921E1,-2.841564082E-4
1.096052521E1,6.770454459E-3
1.097046221E1,-1.046600439E-2
1.098039921E1,1.714695990E-4
1.099033621E1,-4.774799757E-3
1.100027321E1,-1.187816178E-2
1.101020921E1,2.329512443E-3
1.102014621E1,-8.482062388E-3
1.103008321E1,-5.109461490E-3
1.104002021E1,-8.147163112E-3
1.104995721E1,-1.200751316E-2
1.105989321E1,-1.256804187E-3
1.106983021E1,-4.214197956E-4
1.107976721E1,-5.344665740E-3
1.108970421E1,-4.784849659E-3
1.109964121E1,-3.279246446E-3
1.110957821E1,-8.960218448E-3
1.111951421E1,-1.642007791E-3
1.112945121E1,-1.315166708E-3
1.113938821E1,-2.691217549E-3
1.114932521E1,-1.413951762E-2
1.115926221E1,9.276973084E-4
1.116919821E1,-1.381295063E-3
1.117913521E1,-1.407351717E-3
1.118907221E1,-7.664968818E-4
1.119900921E1,1.713416912E-3
1.120894621E1,-6.718998961E-4
1.121888221E1,-4.168681037E-3
1.122881921E1,-2.480973601E-3
1.123875621E1,-4.530422688E-3
1.124869321E1,-7.440581918E-4
1.125863021E1,-8.190670051E-4
1.126856721E1,-1.131655499E-3
1.127850321E1,-9.031024575E-4
1.128844021E1,-2.384037729E-3
1.129837721E1,-7.945068721E-3
1.130831421E1,-7.754979394E-3
1.131825121E1,-6.151435319E-3
1.132818721E1,-7.368588075E-4
1.133812421E1,-2.340731788E-3
1.134806121E1,-1.067590116E-2
1.135799821E1,-6.118380278E-3
1.136793521E1,-1.519764438E-3
1.137787121E1,-3.941059895E-3
1.138780821E1,6.054883171E-3
1.139774521E1,-6.591730658E-3
1.140768221E1,-4.079967812E-3
1.141761921E1,-7.659194693E-3
1.142755521E1,-9.304400180E-3
1.143749221E1,-5.850248896E-3
1.144742921E1,-2.869813442E-3
1.145736621E1,-8.310190793E-3
1.146730321E1,-2.327465918E-3
1.147724021E1,1.385936290E-3
1.148717571E1,-9.234361500E-3
1.149711271E1,1.362931151E-3
1.150704971E1,1.491186172E-3
1.151698671E1,-1.605663691E-3
1.152692371E1,-3.865393270E-3
1.153685971E1,1.233415324E-3
1.154679671E1,-5.539067388E-3
1.155673371E1,-6.365443412E-3
1.156667071E1,2.878876626E-3
1.157660771E1,1.074900962E-3
1.158654371E1,-4.891031440E-3
1.159648071E1,-2.779400870E-3
1.160641771E1,5.166965201E-3
1.161635471E1,-4.426415339E-3
1.162629171E1,-2.293131799E-3
1.163622871E1,2.451883703E-3
1.164616471E1,-6.892094817E-3
1.165610171E1,-1.024516236E-2
1.166603871E1,5.387587957E-3
1.167597571E1,-2.226235997E-3
1.168591271E1,4.965163171E-3
1.169584871E1,6.313896552E-4
1.170578571E1,-6.465467345E-3
1.171572271E1,-4.628381822E-3
1.172565971E1,-3.425317202E-3
1.173559671E1,-7.772393133E-3
1.174553271E1,1.859853119E-3
1.175546971E1,-3.696902096E-3
1.176540671E1,-2.304844502E-3
1.177534371E1,-3.622898273E-3
1.178528071E1,7.407764420E-3
1.179521671E1,-8.773381636E-4
1.180515371E1,-6.766178682E-3
1.181509071E1,-6.912212893E-3
1.182502771E1,-3.316504173E-3
1.183496471E1,-9.805415198E-4
1.184490171E1,-2.516659889E-3
1.185483771E1,-5.837275386E-3
1.186477471E1,-1.387361549E-3
1.187471171E1,-3.312886208E-3
1.188464871E1,-7.836420145E-3
1.189458571E1,-1.644529402E-6
1.190452171E1,-4.457277674E-3
1.191445871E1,-9.099217728E-3
1.192439571E1,-1.903031152E-3
1.193433271E1,4.848986305E-4
1.194426971E1,-8.736763448E-3
1.195420571E1,-7.112187669E-3
1.196414271E1,-6.763401255E-4
1.197407971E1,-3.865502905E-3
1.198401671E1,-1.788224727E-3
1.199395371E1,4.506741464E-4
1.200388971E1,-3.589039240E-3
1.201382671E1,4.638669267E-3
1.202376371E1,-3.268374279E-3
1.203370071E1,-1.065655053E-3
1.204363771E1,-4.631561246E-3
1.205357371E1,-1.912496332E-3
1.206351071E1,-2.454094682E-3
1.207344771E1,-4.314459432E-3
1.208338471E1,-7.396892253E-3
1.209332171E1,-2.496486995E-3
1.210325871E1,-1.761820894E-3
1.211319471E1,-6.403304134E-3
1.212313171E1,-2.320997436E-3
1.213306871E1,1.881688815E-3
1.214300571E1,3.479495309E-3
1.215294271E1,-6.394679490E-3
1.216287871E1,-6.556610819E-3
1.217281571E1,-8.995045926E-3
1.218275271E1,-1.133897541E-2
1.219268971E1,1.700370312E-3
1.220262671E1,-4.629642628E-3
1.221256271E1,7.020075750E-3
1.222249971E1,-7.995756771E-3
1.223243671E1,-1.337137621E-2
1.224237371E1,-2.108304966E-3
1.225231071E1,-1.751643084E-3
1.226224671E1,-5.753020663E-3
1.227218371E1,-1.301179072E-2
1.228212071E1,-4.345778581E-3
1.229205771E1,-1.079944186E-3
1.230199471E1,-5.925093256E-3
1.231193171E1,-6.609930117E-3
1.232186771E1,-4.199159648E-3
1.233180471E1,-1.376684899E-2
1.234174171E1,-3.029223159E-3
1.235167871E1,-2.996643204E-3
1.236161571E1,3.670004904E-3
1.237155171E1,-2.876007836E-3
1.238148871E1,-5.485455729E-3
1.239142571E1,-2.742015235E-3
1.240136271E1,-5.790753476E-3
1.241129971E1,-4.822637290E-3
1.242123571E1,-7.494211849E-3
1.243117271E1,-1.058499523E-2
1.244110971E1,-9.333069809E-3
1.245104671E1,-6.321735475E-3
1.246098371E1,-1.792939045E-3
1.247091971E1,-3.102861531E-4
1.248085671E1,-4.619537909E-3
1.249079371E1,8.492715284E-4
1.250073071E1,-6.534446217E-4
1.251066771E1,-6.940498799E-3
1.252060371E1,-6.730711665E-3
1.253054071E1,-1.233338580E-2
1.254047771E1,-5.953708068E-3
1.255041471E1,-3.806171939E-4
1.256035171E1,-8.719057348E-3
1.257028871E1,-5.235688258E-3
1.258022471E1,6.278191991E-3
1.259016171E1,-1.092475500E-2
1.260009871E1,-7.268801685E-3
1.261003571E1,-8.813562971E-3
1.261997271E1,-7.790062688E-3
1.262990871E1,-3.567002546E-3
1.263984571E1,-6.796602476E-3
1.264978271E1,-2.306141853E-3
1.265971971E1,-9.856724516E-3
1.266965671E1,-2.400373388E-3
1.267959271E1,-5.809756927E-4
1.268952971E1,-5.276600495E-3
1.269946671E1,-8.199477419E-3
1.270940371E1,-2.928925138E-3
1.271934071E1,-9.916786384E-3
1.272927671E1,-1.395922238E-2
1.273921371E1,3.175403550E-3
1.274915071E1,-6.170913856E-3
1.275908771E1,-9.996966328E-3
1.276902471E1,-1.040815350E-2
1.277896071E1,4.947749432E-3
1.278889771E1,2.614436299E-4
1.279883471E1,-1.306578610E-2
1.280877171E1,-6.204608437E-3
1.281870871E1,-5.367159247E-3
1.282864471E1,-9.489665553E-4
1.283858171E1,6.380591355E-4
1.284851871E1,-9.983737003E-3
1.285845571E1,-4.117554445E-3
1.286839271E1,-9.370053448E-3
1.287832871E1,-7.789258696E-3
1.288826571E1,3.224081621E-3
1.289820271E1,-1.241016705E-2
1.290813971E1,-5.595876742E-3
1.291807671E1,3.303896114E-3
1.292801371E1,-1.088760691E-2
1.293794971E1,6.549246982E-4
1.294788671E1,-1.128059462E-2
1.295782371E1,-5.711852610E-3
1.296776071E1,-1.392240319E-3
1.297769771E1,-4.725719690E-3
1.298763371E1,2.462280784E-3
1.299757071E1,-5.144690964E-3
1.300750771E1,-2.893476393E-3
1.301744471E1,-4.251455683E-3
1.302738171E1,-1.416292476E-2
1.303731771E1,-7.528162245E-3
1.304725471E1,-2.376801800E-3
1.305719171E1,-9.981946293E-3
1.306712871E1,-3.765661698E-3
1.307706571E1,-7.423752900E-3
1.308700171E1,-9.378440548E-3
1.309693871E1,-2.999365814E-3
1.310687571E1,-3.774706610E-3
1.311681271E1,-4.087276831E-3
1.312674971E1,-1.381879784E-2
1.313668571E1,-9.167100247E-3
1.314662271E1,-2.115412988E-4
1.315655971E1,-2.368542608E-3
1.316649671E1,-5.443008598E-3
1.317643371E1,-7.781712133E-3
1.318636971E1,6.338491403E-3
1.319630671E1,-3.896255605E-4
1.320624371E1,-2.807193417E-3
1.321618071E1,-2.767395806E-3
1.322611771E1,-1.337965367E-2
1.323605471E1,-3.953211140E-3
1.324599071E1,-3.787351213E-4
1.325592771E1,-2.845986038E-3
1.326586471E1,-7.241904493E-3
1.327580171E1,-1.936451644E-3
1.328573771E1,-8.444841206E-4
1.329567471E1,-9.738172218E-3
1.330561171E1,2.763576843E-3
1.331554871E1,-6.048615687E-3
1.332548571E1,-9.034057818E-3
1.333542271E1,-7.128980141E-3
1.334535871E1,3.268228099E-3
1.335529571E1,-2.468822356E-3
1.336523271E1,-8.573881947E-3
1.337516971E1,-5.068457890E-3
1.338510671E1,-8.914281260E-3
1.339504271E1,-5.858508088E-3
1.340497971E1,-1.464380343E-3
1.341491671E1,-8.360604756E-3
1.342485371E1,-9.850749392E-3
1.343479071E1,-5.261288099E-3
1.344472671E1,-1.054545343E-3
1.345466371E1,-6.578483060E-4
1.346460071E1,-4.941628128E-3
1.347453771E1,-3.247287758E-3
1.348447529E1,-6.954203211E-3
1.349441129E1,-2.694597971E-3
1.350434829E1,-1.675578117E-2
1.351428529E1,-1.414669873E-2
1.352422229E1,-2.163341884E-3
1.353415929E1,-1.288896265E-2
1.354409529E1,-9.555428457E-3
1.355403229E1,-8.977412917E-3
1.356396929E1,-3.179843780E-3
1.357390629E1,-7.114051469E-3
1.358384329E1,4.856843501E-5
1.359377929E1,-7.773379851E-3
1.360371629E1,-6.777306665E-3
1.361365329E1,5.295786671E-3
1.362359029E1,-1.620775089E-5
1.363352729E1,-1.971151214E-3
1.364346329E1,-1.407125138E-2
1.365340029E1,-1.089438602E-2
1.366333729E1,-1.318815736E-2
1.367327429E1,-1.024432182E-2
1.368321129E1,-2.055162912E-2
1.369314729E1,-5.632915199E-3
1.370308429E1,-8.078257330E-3
1.371302129E1,5.480302870E-4
1.372295829E1,-1.886348315E-3
1.373289529E1,-7.053021155E-3
1.374283129E1,-1.034754345E-2
1.375276829E1,-1.816881565E-2
1.376270529E1,-9.094137959E-3
1.377264229E1,-3.361198828E-3
1.378257929E1,-2.149765380E-3
1.379251529E1,-2.679906841E-3
1.380245229E1,-9.143126663E-3
1.381238929E1,-8.009004369E-3
1.382232629E1,-3.275299575E-3
1.383226329E1,-1.061711837E-2
1.384219929E1,-5.385303888E-3
1.385213629E1,-9.147292804E-3
1.386207329E1,-2.328196820E-3
1.387201029E1,-5.214254558E-4
1.388194729E1,-6.486078780E-3
1.389188329E1,-5.153699331E-3
1.390182029E1,-5.600444879E-3
1.391175729E1,-7.862714343E-3
1.392169429E1,1.485485137E-3
1.393163129E1,-1.077607127E-2
1.394156729E1,-1.053467263E-3
1.395150429E1,-8.672243077E-3
1.396144129E1,-3.328253422E-3
1.397137829E1,-5.505975801E-3
1.398131529E1,-2.116308343E-3
1.399125229E1,-9.461562373E-3
1.400118829E1,5.622536391E-3
1.401112529E1,-8.324461654E-3
1.402106229E1,-1.573083736E-4
1.403099929E1,-1.431964841E-3
1.404093629E1,-6.226224862E-3
1.405087229E1,-1.618677400E-2
1.406080929E1,3.463543374E-3
1.407074629E1,-5.025901124E-3
1.408068329E1,-5.916998517E-3
1.409062029E1,-2.136682235E-3
1.410055629E1,4.174400344E-3
1.411049329E1,-4.137197435E-3
1.412043029E1,-1.023995468E-2
1.413036729E1,7.344468310E-4
1.414030329E1,8.061848581E-3
1.415024029E1,3.786072135E-4
1.416017729E1,-6.102190800E-3
1.417011429E1,-3.624085989E-3
1.418005129E1,-3.834183756E-3
1.418998829E1,-1.181440886E-2
1.419992429E1,-7.476999108E-3
1.420986129E1,-5.329298526E-3
1.421979829E1,-7.511150502E-3
1.422973529E1,-1.079832723E-2
1.423967229E1,-5.378963314E-3
1.424960829E1,-5.195360743E-3
1.425954529E1,-5.471879225E-3
1.426948229E1,-2.087254990E-3
1.427941929E1,-7.812099382E-3
1.428935629E1,-4.964085091E-3
1.429929229E1,-9.418439157E-3
1.430922929E1,-7.881644703E-3
1.431916629E1,-1.787037011E-3
1.432910329E1,-1.126093335E-2
1.433904029E1,-8.435248118E-3
1.434897629E1,-8.613387197E-3
1.435891329E1,-3.077133782E-3
1.436885029E1,-1.125278380E-3
1.437878729E1,-9.336961862E-3
1.438872329E1,1.611967720E-3
1.439866029E1,-1.500998531E-3
1.440859729E1,-5.328275263E-3
1.441853429E1,-7.537974603E-3
1.442847129E1,-4.883448333E-3
1.443840729E1,-3.154170848E-3
1.444834429E1,-4.550266676E-3
1.445828129E1,-2.184501495E-3
1.446821829E1,-5.518985856E-3
1.447815529E1,-3.581839856E-3
1.448809129E1,-6.487759855E-3
1.449802829E1,-6.436139904E-3
1.450796529E1,-4.342251979E-3
1.451790229E1,-4.763087053E-3
1.452783929E1,-6.572416574E-3
1.453777529E1,1.804944109E-3
1.454771229E1,-5.854378492E-3
1.455764929E1,-1.000719896E-2
1.456758629E1,-1.113662520E-2
1.457752329E1,2.607858181E-4
1.458745929E1,-1.434541270E-3
1.459739629E1,-9.989237040E-4
1.460733329E1,-5.996045563E-3
1.461727029E1,-4.394548014E-4
1.462720729E1,2.177503109E-3
1.463714329E1,-5.548441205E-3
1.464708029E1,-6.163970288E-3
1.465701729E1,1.656406559E-4
1.466695429E1,-8.147035204E-3
1.467689129E1,-3.248859197E-3
1.468682729E1,6.662536785E-4
1.469676429E1,1.000659596E-3
1.470670129E1,-3.862889931E-3
1.471663829E1,-2.505075093E-3
1.472657529E1,-5.051391330E-3
1.473651129E1,-2.013104986E-3
1.474644829E1,3.052776475E-3
1.475638529E1,1.397155635E-3
1.476632229E1,2.784846090E-3
1.477625929E1,7.252137121E-3
1.478619529E1,2.558851205E-3
1.479613229E1,5.079549327E-3
1.480606929E1,7.645965368E-4
1.481600629E1,-1.506511359E-2
1.482594329E1,4.708835855E-4
1.483587929E1,-6.979474146E-3
1.484581629E1,-6.331657469E-3
1.485575329E1,2.063427586E-3
1.486569029E1,-2.256349158E-3
1.487562729E1,-3.673622869E-3
1.488556329E1,-8.134628143E-3
1.489550029E1,-1.651089247E-3
1.490543729E1,4.848273676E-3
1.491537429E1,-1.516292654E-3
1.492531129E1,-6.144619659E-3
1.493524729E1,-6.720003951E-3
1.494518429E1,-4.688334055E-3
1.495512129E1,-4.595363326E-4
1.496505829E1,-1.809969060E-3
1.497499529E1,-5.452546868E-3
1.498493129E1,4.157553054E-4
1.499486829E1,3.827916272E-3
1.500480529E1,3.781650178E-3
1.501474229E1,-1.578894407E-3
1.502467929E1,-1.535058562E-3
1.503461529E1,-2.378811780E-3
1.504455229E1,-3.669493273E-4
1.505448929E1,-3.903052993E-3
1.506442629E1,-6.275049113E-3
1.507436329E1,3.790676817E-3
1.508429929E1,-2.503722925E-3
1.509423629E1,-6.217106860E-3
1.510417329E1,1.008955333E-3
1.511411029E1,-4.649888612E-3
1.512404629E1,-4.891378619E-4
1.513398329E1,1.502387244E-3
1.514392029E1,2.544178348E-3
1.515385729E1,-6.988884509E-3
1.516379429E1,-2.896929905E-4
1.517373029E1,-1.074403949E-2
1.518366729E1,-8.422365971E-4
1.519360429E1,9.641327709E-4
1.520354129E1,-5.605634283E-3
1.521347829E1,-6.148274168E-3
1.522341429E1,5.991970785E-3
1.523335129E1,-4.601575993E-3
1.524328829E1,2.003383990E-3
1.525322529E1,-9.643246327E-3
1.526316229E1,-3.726613261E-3
1.527309829E1,3.256497122E-3
1.528303529E1,-4.604316875E-4
1.529297229E1,-3.487882409E-3
1.530290929E1,2.019957192E-3
1.531284629E1,-3.024216481E-3
1.532278229E1,1.759829186E-3
1.533271929E1,-5.097474698E-3
1.534265629E1,-9.800828788E-3
1.535259329E1,2.867821734E-3
1.536253029E1,3.635323606E-4
1.537246629E1,-7.599644456E-3
1.538240329E1,-1.118124677E-2
1.539234029E1,-2.380255312E-3
1.540227729E1,1.070278008E-3
1.541221429E1,-1.631190442E-4
1.542215029E1,3.617032785E-3
1.543208729E1,-6.658315826E-3
1.544202429E1,-4.320964459E-3
1.545196129E1,-3.861592580E-3
1.546189829E1,1.589748301E-3
1.547183429E1,-1.226033214E-3
1.548177129E1,3.284362759E-3
1.549170767E1,-5.923686270E-3
1.550164467E1,1.790673248E-3
1.551158167E1,-3.130398262E-3
1.552151767E1,-6.695427373E-3
1.553145467E1,5.256445874E-3
1.554139167E1,1.545802820E-3
1.555132867E1,-3.292567134E-3
1.556126567E1,3.915606234E-3
1.557120167E1,6.627709307E-3
1.558113867E1,-6.812974680E-3
1.559107567E1,4.173267446E-3
1.560101267E1,3.304444291E-3
1.561094867E1,3.407611102E-3
1.562088567E1,6.937154923E-3
1.563082267E1,-2.350873053E-3
1.564075967E1,2.245988622E-3
1.565069667E1,3.306381181E-3
1.566063267E1,-5.124024712E-3
1.567056967E1,5.311884787E-3
1.568050667E1,-6.727221608E-4
1.569044367E1,-3.127054386E-3
1.570038067E1,-4.063577335E-3
1.571031667E1,-2.963624708E-4
1.572025367E1,-1.042576823E-3
1.573019067E1,2.271606736E-3
1.574012767E1,-1.692403480E-4
1.575006467E1,2.528007142E-3
1.576000067E1,-1.182416640E-4
1.576993767E1,4.183701072E-3
1.577987467E1,3.029314522E-3
1.578981167E1,-2.293150071E-3
1.579974867E1,-5.031364616E-3
1.580968467E1,6.724699996E-3
1.581962167E1,-4.902945142E-3
1.582955867E1,-6.722288020E-4
1.583949567E1,-1.172311921E-3
1.584943167E1,-2.167343572E-3
1.585936867E1,-3.503889162E-3
1.586930567E1,-6.591091119E-3
1.587924267E1,3.775675055E-3
1.588917967E1,-9.127430543E-3
1.589911567E1,7.156425510E-3
1.590905267E1,1.027757786E-2
1.591898967E1,-1.681494769E-3
1.592892667E1,1.928850263E-4
1.593886367E1,1.111153699E-4
1.594879967E1,6.328076050E-3
1.595873667E1,-6.513980962E-4
1.596867367E1,3.153092768E-3
1.597861067E1,-1.827602070E-3
1.598854767E1,2.968448661E-3
1.599848367E1,1.162791923E-3
1.600842067E1,1.087472476E-3
1.601835767E1,3.390617631E-3
1.602829467E1,-1.603964344E-4
1.603823167E1,-6.160041690E-3
1.604816767E1,5.633262377E-3
1.605810467E1,5.590303615E-3
1.606804167E1,1.188846750E-2
1.607797867E1,4.828447960E-3
1.608791567E1,7.826023065E-3
1.609785167E1,6.068386585E-3
1.610778867E1,-2.585730124E-3
1.611772567E1,-5.470362604E-3
1.612766267E1,-1.249951981E-3
1.613759867E1,-2.624413110E-3
1.614753567E1,-8.163736314E-3
1.615747267E1,-1.586788148E-3
1.616740967E1,3.142969776E-3
1.617734667E1,5.348557793E-4
1.618728267E1,3.301685136E-3
1.619721967E1,2.811597101E-4
1.620715667E1,-1.121824868E-3
1.621709367E1,1.570854485E-3
1.622703067E1,3.248311020E-4
1.623696667E1,-2.287558671E-3
1.624690367E1,1.680032965E-3
1.625684067E1,1.140472004E-2
1.626677767E1,-8.654610068E-4
1.627671467E1,-3.459139690E-3
1.628665067E1,-5.222385842E-3
1.629658767E1,3.700922057E-4
1.630652467E1,1.944893561E-3
1.631646167E1,7.588571291E-3
1.632639867E1,-2.317653559E-3
1.633633467E1,-2.557718307E-3
1.634627167E1,-4.667887073E-3
1.635620867E1,9.411367681E-3
1.636614567E1,-3.566618823E-4
1.637608267E1,-3.211948648E-4
1.638601867E1,7.408440504E-3
1.639595567E1,5.254454166E-3
1.640589267E1,-1.259307526E-3
1.641582967E1,-2.351457775E-3
1.642576567E1,7.097788900E-4
1.643570267E1,-1.111921147E-3
1.644563967E1,1.081606988E-3
1.645557667E1,-2.312153522E-3
1.646551367E1,6.191963833E-3
1.647544967E1,8.073634375E-3
1.648538754E1,7.396545075E-4
1.649532454E1,1.891172267E-3
1.650526154E1,-8.731172048E-4
1.651519854E1,4.473138247E-3
1.652513454E1,8.478462696E-4
1.653507154E1,2.468767539E-3
1.654500854E1,-1.752300896E-3
1.655494554E1,-2.873175591E-3
1.656488154E1,8.764409814E-3
1.657481854E1,-1.728729308E-3
1.658475554E1,6.631656177E-4
1.659469254E1,-8.902020380E-4
1.660462954E1,-4.999917559E-4
1.661456554E1,4.188835658E-3
1.662450254E1,8.130114824E-3
1.663443954E1,-2.302889340E-4
1.664437654E1,3.485178072E-3
1.665431354E1,3.499814384E-3
1.666424954E1,-7.290070932E-3
1.667418654E1,5.839742180E-3
1.668412354E1,2.367628980E-3
1.669406054E1,7.678125054E-4
1.670399754E1,-4.099263623E-4
1.671393354E1,2.022204716E-3
1.672387054E1,2.480863966E-4
1.673380754E1,-2.408139221E-4
1.674374454E1,7.342458330E-3
1.675368154E1,1.737372223E-3
1.676361754E1,5.145695955E-3
1.677355454E1,1.638079192E-3
1.678349154E1,-8.434974030E-4
1.679342854E1,5.909123048E-3
1.680336454E1,8.794723973E-3
1.681330154E1,-1.580411028E-3
1.682323854E1,1.159539409E-3
1.683317554E1,2.689828835E-3
1.684311254E1,3.004061859E-3
1.685304854E1,-1.704134457E-3
1.686298554E1,4.700156394E-3
1.687292254E1,-2.757236268E-3
1.688285954E1,-3.839720339E-3
1.689279654E1,7.649766058E-3
1.690273254E1,1.541252956E-3
1.691266954E1,2.740516886E-4
1.692260654E1,7.503092308E-3
1.693254354E1,2.486565001E-3
1.694248054E1,4.270605315E-3
1.695241654E1,-2.048572004E-3
1.696235354E1,7.115330547E-4
1.697229054E1,5.982925873E-3
1.698222754E1,7.024515979E-3
1.699216354E1,2.694926877E-3
1.700210054E1,2.685077973E-3
1.701203754E1,7.206930835E-3
1.702197454E1,9.744549338E-3
1.703191154E1,2.563218344E-3
1.704184754E1,-7.707361132E-5
1.705178454E1,-4.758537188E-4
1.706172154E1,1.347417757E-3
1.707165854E1,5.065168831E-3
1.708159554E1,-3.725041822E-4
1.709153154E1,-1.676031277E-3
1.710146854E1,1.276246179E-3
1.711140554E1,4.363484681E-5
1.712134254E1,2.263164818E-3
1.713127954E1,1.593384538E-3
1.714121554E1,4.454555064E-3
1.715115254E1,7.966173515E-3
1.716108954E1,-2.983030155E-3
1.717102654E1,5.592514593E-3
1.718096254E1,1.204409480E-2
1.719089954E1,1.401979588E-3
1.720083654E1,-4.509189986E-3
1.721077354E1,3.887959868E-3
1.722071054E1,5.024676863E-3
1.723064654E1,1.294418229E-2
1.724058354E1,7.569001392E-3
1.725052054E1,4.337994475E-3
1.726045754E1,2.105655447E-3
1.727039454E1,6.708272975E-3
1.728033054E1,2.800633572E-4
1.729026754E1,2.056447472E-3
1.730020454E1,6.343680806E-3
1.731014154E1,1.447551325E-3
1.732007854E1,3.481962103E-3
1.733001454E1,2.195264027E-4
1.733995154E1,6.958168354E-3
1.734988854E1,1.101030707E-3
1.735982554E1,9.774900042E-4
1.736976154E1,7.705223244E-3
1.737969854E1,1.029077064E-2
1.738963554E1,5.189458709E-3
1.739957254E1,7.649126519E-3
1.740950954E1,6.240477450E-3
1.741944554E1,7.035662234E-3
1.742938254E1,9.864636529E-3
1.743931954E1,-4.572175462E-3
1.744925654E1,1.135178447E-2
1.745919354E1,1.126310779E-2
1.746912954E1,-8.672973979E-3
1.747906654E1,7.808974776E-3
1.748900329E1,6.566733811E-3
1.749894029E1,-1.157438066E-3
1.750887629E1,6.242450885E-3
1.751881329E1,5.838152468E-3
1.752875029E1,6.522569060E-3
1.753868729E1,9.995943066E-3
1.754862429E1,5.493002292E-3
1.755856029E1,4.294304810E-3
1.756849729E1,5.902782474E-3
1.757843429E1,1.251633056E-2
1.758837129E1,2.626350001E-3
1.759830829E1,2.463011686E-3
1.760824429E1,8.379060030E-4
1.761818129E1,8.692379426E-3
1.762811829E1,1.663258765E-3
1.763805529E1,7.585866954E-3
1.764799229E1,1.191808730E-3
1.765792829E1,2.112215292E-3
1.766786529E1,6.868322231E-3
1.767780229E1,7.662958838E-3
1.768773929E1,-1.987121422E-3
1.769767529E1,6.874041539E-3
1.770761229E1,1.454396222E-2
1.771754929E1,-1.618765108E-3
1.772748629E1,3.808492552E-3
1.773742329E1,9.269664064E-3
1.774735929E1,2.391310204E-3
1.775729629E1,-9.356275946E-4
1.776723329E1,-4.567223601E-3
1.777717029E1,8.056220636E-3
1.778710629E1,-1.550060324E-4
1.779704329E1,6.602785550E-4
1.780698029E1,5.028386191E-3
1.781691729E1,-2.416142598E-3
1.782685429E1,-5.202487037E-3
1.783679029E1,-1.905881669E-3
1.784672729E1,-1.908385009E-4
1.785666429E1,1.462534815E-3
1.786660129E1,3.083985988E-3
1.787653829E1,9.895553682E-3
1.788647429E1,6.494630333E-3
1.789641129E1,7.878995184E-3
1.790634829E1,5.343806930E-4
1.791628529E1,2.321563885E-3
1.792622129E1,-2.223348934E-3
1.793615829E1,2.876391560E-3
1.794609529E1,-1.314782985E-3
1.795603229E1,3.276213203E-3
1.796596929E1,3.667190932E-3
1.797590529E1,2.483696211E-3
1.798584229E1,3.396738935E-3
1.799577929E1,2.744171396E-4
1.800571629E1,-1.951599587E-3
1.801565329E1,2.294155061E-3
1.802558929E1,-1.428054515E-3
1.803552629E1,3.399954904E-3
1.804546329E1,-8.474917822E-3
1.805540029E1,5.196804274E-3
1.806533629E1,-7.534685545E-4
1.807527329E1,4.956319258E-3
1.808521029E1,1.757819206E-3
1.809514729E1,-6.668347456E-3
1.810508429E1,5.726086926E-3
1.811502029E1,6.984042283E-3
1.812495729E1,2.712139618E-3
1.813489429E1,-3.466393892E-3
1.814483129E1,-8.093935177E-3
1.815476729E1,-3.146185745E-3
1.816470429E1,3.662622795E-3
1.817464129E1,4.549005870E-3
1.818457829E1,1.458277311E-3
1.819451529E1,5.937006958E-3
1.820445129E1,-5.472080223E-4
1.821438829E1,4.184285793E-3
1.822432529E1,3.378777020E-3
1.823426229E1,-4.675579816E-3
1.824419929E1,3.251508716E-3
1.825413529E1,7.594564687E-3
1.826407229E1,2.674443349E-3
1.827400929E1,8.958117105E-4
1.828394629E1,5.195415560E-3
1.829388229E1,-2.549751475E-4
1.830381929E1,-5.334085934E-3
1.831375629E1,1.426446531E-3
1.832369329E1,7.277115695E-3
1.833363029E1,-2.189526446E-3
1.834356629E1,-3.139644172E-3
1.835350329E1,-3.294211663E-3
1.836344029E1,-4.902707599E-3
1.837337729E1,-1.909079365E-3
1.838331429E1,6.846248992E-3
1.839325029E1,2.678700853E-3
1.840318729E1,1.414843462E-3
1.841312429E1,5.387569685E-3
1.842306129E1,-1.493579876E-3
1.843299729E1,-1.888157297E-3
1.844293429E1,1.182727274E-3
1.845287129E1,4.507143460E-3
1.846280829E1,5.134403519E-4
1.847274529E1,-3.331177030E-3
1.848268129E1,9.571252484E-3
1.849261758E1,-8.665025420E-3
1.850255458E1,-3.869669046E-3
1.851249158E1,-4.544565640E-4
1.852242758E1,2.126193792E-3
1.853236458E1,4.283524007E-3
1.854230158E1,-4.145748988E-3
1.855223858E1,4.899582993E-3
1.856217558E1,-2.532282919E-3
1.857211158E1,4.251528773E-3
1.858204858E1,6.836929992E-3
1.859198558E1,-1.319862753E-3
1.860192258E1,1.844924446E-3
1.861185858E1,-1.347125396E-3
1.862179558E1,6.968053803E-4
1.863173258E1,8.654610068E-4
1.864166958E1,4.129157513E-3
1.865160658E1,5.623651017E-3
1.866154258E1,-4.447538406E-5
1.867147958E1,4.095152300E-3
1.868141658E1,4.265598636E-3
1.869135358E1,-5.323615763E-3
1.870129058E1,1.098344643E-3
1.871122658E1,-9.652053695E-3
1.872116358E1,-4.147777241E-3
1.873110058E1,1.956149451E-3
1.874103758E1,-2.513023652E-3
1.875097358E1,-7.808006331E-3
1.876091058E1,-5.410538279E-3
1.877084758E1,1.745357327E-3
1.878078458E1,3.154737297E-3
1.879072158E1,-5.515386164E-4
1.880065758E1,3.112893160E-3
1.881059458E1,2.169865184E-3
1.882053158E1,-5.015869495E-3
1.883046858E1,-5.086474624E-3
1.884040458E1,1.013359018E-3
1.885034158E1,-5.587489642E-3
1.886027858E1,-8.953183517E-4
1.887021558E1,-5.115948245E-3
1.888015258E1,-3.398895096E-3
1.889008858E1,-8.218517415E-3
1.890002558E1,-1.000983020E-2
1.890996258E1,-2.824552339E-3
1.891989958E1,-7.920601778E-4
1.892983558E1,-3.206576519E-3
1.893977258E1,9.744567610E-4
1.894970958E1,-8.939935919E-3
1.895964658E1,-1.593380883E-2
1.896958358E1,6.903917156E-4
1.897951958E1,-7.918774523E-4
1.898945658E1,1.275296006E-3
1.899939358E1,3.074045721E-3
1.900933058E1,-5.004083700E-3
1.901926758E1,-2.420820370E-3
1.902920358E1,-2.081919406E-3
1.903914058E1,1.397776902E-3
1.904907758E1,3.535738215E-4
1.905901458E1,2.379798498E-3
1.906895058E1,3.247561846E-3
1.907888758E1,6.366430130E-3
1.908882458E1,-2.506317627E-3
1.909876158E1,-2.686466686E-3
1.910869858E1,3.086617235E-3
1.911863458E1,-1.622108985E-3
1.912857158E1,3.382413257E-3
1.913850858E1,-2.379268594E-3
1.914844558E1,-7.587493211E-3
1.915838158E1,1.501638070E-4
1.916831858E1,1.979922038E-3
1.917825558E1,9.050393477E-5
1.918819258E1,-2.497583348E-3
1.919812958E1,1.666091010E-4
1.920806558E1,8.506602421E-4
1.921800258E1,-1.621067449E-3
1.922793958E1,-2.022844255E-3
1.923787658E1,-4.697287604E-3
1.924781258E1,-7.449681647E-3
1.925774958E1,-2.526435703E-3
1.926768658E1,1.736805774E-4
1.927762358E1,2.871403154E-3
1.928756058E1,-2.296457402E-3
1.929749658E1,-6.545884833E-3
1.930743358E1,-2.776659988E-3
1.931737058E1,3.633861803E-4
1.932730758E1,-2.359991055E-3
1.933724358E1,1.231843885E-3
1.934718058E1,1.297661606E-3
1.935711758E1,-7.286909781E-4
1.936705458E1,-2.156617586E-3
1.937699158E1,-1.850278303E-3
1.938692758E1,6.068934761E-3
1.939686458E1,-2.952569816E-3
1.940680158E1,-1.049262749E-2
1.941673858E1,-2.291852720E-3
1.942667458E1,-3.195686080E-3
1.943661158E1,-8.683170062E-3
1.944654858E1,-7.467643563E-3
1.945648558E1,5.156513304E-4
1.946642258E1,-2.330517434E-3
1.947635858E1,5.390036479E-4
1.948629558E1,-4.927594811E-3
1.949623304E1,-8.883875739E-3
1.950617004E1,-4.729520380E-3
1.951610604E1,-5.035622120E-3
1.952604304E1,4.552532472E-3
1.953598004E1,-2.870361619E-3
1.954591704E1,1.065106876E-4
1.955585404E1,2.250794303E-3
1.956579004E1,-9.552322123E-3
1.957572704E1,-3.086251784E-3
1.958566404E1,1.576793063E-3
1.959560104E1,6.253323052E-3
1.960553704E1,1.585582159E-3
1.961547404E1,-2.251817565E-3
1.962541104E1,2.462280784E-3
1.963534804E1,-6.399832349E-3
1.964528504E1,1.014309190E-3
1.965522104E1,4.271336216E-3
1.966515804E1,-8.974270038E-3
1.967509504E1,5.065790098E-3
1.968503204E1,-3.664486594E-3
1.969496804E1,1.772126611E-3
1.970490504E1,-2.107098978E-3
1.971484204E1,7.962811366E-4
1.972477904E1,-1.149854958E-3
1.973471604E1,3.008264545E-3
1.974465204E1,-4.874494784E-3
1.975458904E1,-7.608561460E-3
1.976452604E1,1.777041927E-3
1.977446304E1,1.513880678E-4
1.978439904E1,-3.003367502E-3
1.979433604E1,-6.338217314E-3
1.980427304E1,8.580441792E-3
1.981421004E1,3.981570136E-3
1.982414704E1,3.043804653E-3
1.983408304E1,5.573657323E-3
1.984402004E1,-1.846276615E-3
1.985395704E1,-3.539703358E-3
1.986389404E1,-4.197332393E-3
1.987383004E1,-5.043132138E-3
1.988376704E1,-3.028985616E-3
1.989370404E1,-3.070665300E-3
1.990364104E1,-6.141860504E-3
1.991357804E1,-6.345873512E-3
1.992351404E1,-5.963246338E-3
1.993345104E1,-3.897041325E-3
1.994338804E1,-3.299327977E-3
1.995332504E1,-4.232324325E-3
1.996326104E1,-2.576392852E-3
1.997319804E1,6.912852433E-3
1.998313504E1,5.233258009E-5
1.999307204E1,-3.466704525E-3
2.000300904E1,1.947616171E-3
2.001294504E1,3.126159031E-3
2.002288204E1,-8.252595719E-3
2.003281904E1,-4.945173003E-3
2.004275604E1,1.062201541E-3
2.005269204E1,3.184174374E-3
2.006262904E1,2.680509835E-3
2.007256604E1,-1.279261149E-4
2.008250304E1,-4.148051329E-3
2.009243904E1,8.005496040E-3
2.010237604E1,-5.211732946E-3
2.011231304E1,1.467102952E-4
2.012225004E1,2.795151807E-4
2.013218704E1,-1.949388608E-3
2.014212304E1,-2.615514379E-3
2.015206004E1,1.000294145E-3
2.016199704E1,-3.412197512E-3
2.017193404E1,-2.494531833E-3
2.018187104E1,-6.112332065E-3
2.019180704E1,-5.215716362E-3
2.020174404E1,-3.058550600E-3
2.021168104E1,8.602898754E-4
2.022161804E1,6.392559875E-3
2.023155404E1,1.129365949E-2
2.024149104E1,1.825190093E-3
2.025142804E1,-2.564442605E-3
2.026136504E1,-3.149547894E-3
2.027130104E1,-1.216862222E-2
2.028123804E1,2.005320881E-3
2.029117504E1,6.480469108E-3
2.030111204E1,2.292291261E-3
2.031104904E1,-6.701164953E-3
2.032098504E1,-4.511949141E-3
2.033092204E1,-2.272264548E-3
2.034085904E1,1.727139596E-3
2.035079604E1,-7.064331863E-3
2.036073204E1,-2.763083484E-3
2.037066904E1,2.165607680E-3
2.038060604E1,-1.335339602E-3
2.039054304E1,-4.138622694E-3
2.040048004E1,3.941662889E-3
2.041041604E1,2.330773249E-3
2.042035304E1,3.178089615E-3
2.043029004E1,3.825668748E-3
2.044022704E1,-5.471184868E-3
2.045016304E1,-5.318554267E-3
2.046010004E1,-2.236559987E-3
2.047003704E1,-3.469134774E-3
2.047997404E1,6.854033098E-4
2.048991121E1,-3.236671407E-3
2.049984721E1,5.359046236E-3
2.050978421E1,-2.476094831E-3
2.051972121E1,3.412142694E-3
2.052965821E1,-1.434998084E-3
2.053959421E1,1.668685712E-3
2.054953121E1,3.650910091E-3
2.055946821E1,-4.278773144E-3
2.056940521E1,3.797675204E-3
2.057934221E1,-6.232017260E-3
2.058927821E1,-4.020143487E-4
2.059921521E1,5.287399571E-3
2.060915221E1,-2.008427214E-3
2.061908921E1,-3.590738587E-3
2.062902521E1,-3.579172064E-3
2.063896221E1,5.463857576E-4
2.064889921E1,4.041741639E-3
2.065883621E1,6.065207161E-3
2.066877321E1,2.030116729E-3
2.067870921E1,4.310695287E-3
2.068864621E1,-1.079724915E-4
2.069858321E1,-2.916682530E-3
2.070852021E1,-2.100539133E-3
2.071845621E1,-5.233038738E-3
2.072839321E1,-4.146224074E-4
2.073833021E1,2.886898275E-3
2.074826721E1,-7.032555901E-4
2.075820321E1,6.757554039E-4
2.076814021E1,5.207530260E-3
2.077807721E1,-5.686782673E-4
2.078801421E1,3.412014786E-3
2.079795121E1,-2.345098928E-3
2.080788721E1,-2.628213800E-3
2.081782421E1,2.307146844E-3
2.082776121E1,-6.676917281E-3
2.083769821E1,6.049035955E-3
2.084763421E1,-5.046878010E-5
2.085757121E1,-7.998150475E-3
2.086750821E1,-1.048661582E-3
2.087744521E1,-5.019414369E-3
2.088738221E1,-2.127655596E-4
2.089731821E1,-4.840288572E-3
2.090725521E1,-6.213105172E-3
2.091719221E1,-8.192753121E-3
2.092712921E1,-1.904182322E-4
2.093706521E1,-5.237771329E-3
2.094700221E1,2.601206973E-3
2.095693921E1,3.860039413E-3
2.096687621E1,-4.588840026E-3
2.097681221E1,4.147685878E-4
2.098674921E1,-6.196294427E-3
2.099668621E1,2.303492334E-3
2.100662321E1,6.577697340E-3
2.101656021E1,-3.860587589E-3
2.102649621E1,-3.514834419E-3
2.103643321E1,-2.242462020E-3
2.104637021E1,1.667132545E-3
2.105630721E1,9.415570367E-3
2.106624321E1,-2.683744077E-3
2.107618021E1,2.857570834E-3
2.108611721E1,2.158463113E-3
2.109605421E1,2.069731615E-4
2.110599121E1,8.427299559E-5
2.111592721E1,-1.857459415E-3
2.112586421E1,6.784049235E-4
2.113580121E1,7.761868145E-3
2.114573821E1,-2.649172414E-3
2.115567421E1,2.736131474E-3
2.116561121E1,5.743062124E-3
2.117554821E1,-6.051210389E-3
2.118548521E1,-2.486765999E-3
2.119542121E1,-5.797879770E-5
2.120535821E1,-4.105494563E-3
2.121529521E1,-5.561469533E-3
2.122523221E1,-1.275478732E-3
2.123516921E1,-7.375586461E-3
2.124510521E1,5.848860182E-4
2.125504221E1,5.495761447E-3
2.126497921E1,5.524668619E-3
2.127491621E1,-5.576416478E-4
2.128485221E1,2.019555196E-3
2.129478921E1,1.421567760E-3
2.130472621E1,2.761749588E-3
2.131466321E1,-3.685938567E-3
2.132459921E1,4.361566063E-3
2.133453621E1,-2.423743978E-3
2.134447321E1,-3.568281624E-3
2.135441021E1,3.056723345E-3
2.136434721E1,-7.175026964E-3
2.137428321E1,1.475197691E-3
2.138422021E1,5.907423701E-3
2.139415721E1,-4.057803210E-3
2.140409421E1,-6.911006905E-3
2.141403021E1,-4.752689973E-3
2.142396721E1,-5.035000853E-4
2.143390421E1,3.063557278E-3
2.144384121E1,3.650964908E-3
2.145377821E1,-3.494222984E-3
2.146371421E1,-2.352590673E-4
2.147365121E1,3.822927866E-3
2.148358821E1,-1.988473590E-3
2.149352567E1,9.194746614E-4
2.150346167E1,-1.898152381E-3
2.151339867E1,2.472568229E-3
2.152333567E1,2.051111888E-3
2.153327267E1,-5.337521173E-3
2.154320867E1,-4.935196191E-3
2.155314567E1,-7.121360488E-3
2.156308267E1,-4.135534633E-3
2.157301967E1,-2.647381704E-3
2.158295667E1,1.069967374E-3
2.159289267E1,2.098200247E-3
2.160282967E1,-2.408212312E-3
2.161276667E1,4.254982285E-3
2.162270367E1,1.045714220E-2
2.163263967E1,-1.691690851E-3
2.164257667E1,-5.767547339E-4
2.165251367E1,9.866810963E-4
2.166245067E1,6.198414043E-3
2.167238667E1,-1.529613342E-3
2.168232367E1,3.717696257E-3
2.169226067E1,-8.101390377E-3
2.170219767E1,-6.226572040E-3
2.171213467E1,-3.866727166E-3
2.172207067E1,5.143960062E-3
2.173200767E1,-5.879375339E-3
2.174194467E1,-1.229906995E-3
2.175188167E1,-2.105289996E-3
2.176181767E1,-2.606359832E-3
2.177175467E1,3.670900259E-3
2.178169167E1,7.436415777E-3
2.179162867E1,1.514575034E-3
2.180156467E1,-1.459940113E-3
2.181150167E1,-1.362839788E-3
2.182143867E1,7.325026318E-3
2.183137567E1,-4.830859937E-3
2.184131267E1,-2.382630743E-3
2.185124867E1,3.705453649E-3
2.186118567E1,-2.957759220E-3
2.187112267E1,-3.265468944E-3
2.188105967E1,1.958798971E-3
2.189099567E1,-3.267972283E-3
2.190093267E1,-4.223389048E-3
2.191086967E1,-4.266439173E-3
2.192080667E1,1.217719205E-3
2.193074267E1,8.805541322E-4
2.194067967E1,-4.126361813E-3
2.195061667E1,1.670604330E-3
2.196055367E1,-6.114451680E-3
2.197049067E1,9.718620591E-4
2.198042667E1,-1.728583127E-3
2.199036367E1,-5.508826319E-3
2.200030067E1,-4.194463603E-4
2.201023767E1,-1.043362543E-4
2.202017367E1,1.123505943E-3
2.203011067E1,2.359314971E-3
2.204004767E1,-1.504945401E-2
2.204998467E1,-1.201838532E-2
2.205992067E1,-5.356780440E-4
2.206985767E1,4.908372089E-4
2.207979467E1,9.563852102E-5
2.208973167E1,4.216500297E-3
2.209966867E1,4.742347710E-3
2.210960467E1,-1.725513339E-3
2.211954167E1,-4.428132959E-3
2.212947867E1,-1.127836537E-3
2.213941567E1,-1.582823005E-3
2.214935167E1,-6.257178560E-3
2.215928867E1,-3.898868579E-3
2.216922567E1,2.519747950E-3
2.217916267E1,-3.746512067E-3
2.218909867E1,-1.502569970E-3
2.219903567E1,-7.625938654E-3
2.220897267E1,-1.253489546E-2
2.221890967E1,-4.296607152E-4
2.222884667E1,2.927572969E-3
2.223878267E1,-5.626519807E-3
2.224871967E1,-4.001213126E-3
2.225865667E1,-1.816565450E-3
2.226859367E1,-6.487558857E-3
2.227852967E1,-1.222100962E-2
2.228846667E1,1.112944409E-3
2.229840367E1,9.691942669E-4
2.230834067E1,2.386285253E-3
2.231827667E1,-1.514081676E-3
2.232821367E1,-5.616086181E-3
2.233815067E1,-1.920225620E-3
2.234808767E1,7.419568487E-4
2.235802467E1,-7.755509298E-3
2.236796067E1,2.587392926E-3
2.237789767E1,-1.559220353E-2
2.238783467E1,7.489917800E-4
2.239777167E1,-2.585236765E-3
2.240770767E1,-7.327529658E-3
2.241764467E1,-2.630187236E-3
2.242758167E1,-3.291927595E-3
2.243751867E1,-7.848333847E-3
2.244745467E1,-9.989931397E-3
2.245739167E1,-1.414368376E-3
2.246732867E1,-6.636735946E-3
2.247726567E1,-2.328014094E-3
2.248720167E1,-1.762149800E-3
2.249713817E1,-5.941593368E-3
2.250707517E1,-8.886269443E-3
2.251701217E1,-5.163639598E-4
2.252694917E1,-4.663611297E-3
2.253688517E1,-9.892209806E-4
2.254682217E1,-6.265803203E-3
2.255675917E1,-8.585887011E-3
2.256669617E1,-2.562651895E-3
2.257663217E1,-8.233793266E-3
2.258656917E1,-7.846232504E-4
2.259650617E1,-2.183039691E-3
2.260644317E1,-4.618953187E-3
2.261637917E1,-5.338909887E-3
2.262631617E1,-2.146969680E-3
2.263625317E1,-2.395056076E-3
2.264619017E1,-2.886076011E-3
2.265612717E1,-9.238728639E-3
2.266606317E1,-8.108845577E-3
2.267600017E1,-3.532467429E-3
2.268593717E1,2.698892020E-3
2.269587417E1,-3.956536744E-3
2.270581017E1,-6.233716607E-3
2.271574717E1,1.218358744E-3
2.272568417E1,-9.964751825E-3
2.273562117E1,-5.683383979E-3
2.274555717E1,-4.552971013E-3
2.275549417E1,1.196687501E-3
2.276543117E1,-2.438764013E-3
2.277536817E1,-4.601959717E-3
2.278530517E1,-6.149443612E-3
2.279524117E1,6.829365157E-3
2.280517817E1,2.763613388E-3
2.281511517E1,-4.783552308E-3
2.282505217E1,-5.657199416E-3
2.283498817E1,-7.124686092E-3
2.284492517E1,-1.126606794E-2
2.285486217E1,-1.509931980E-2
2.286479917E1,-3.105584141E-3
2.287473517E1,-3.531042170E-3
2.288467217E1,-8.058194071E-6
2.289460917E1,-5.838006288E-3
2.290454617E1,-1.309173312E-3
2.291448217E1,-2.051988970E-3
2.292441917E1,-7.577808760E-4
2.293435617E1,-1.280266140E-3
2.294429317E1,-1.885909773E-4
2.295423017E1,-1.196110088E-2
2.296416617E1,-6.325554438E-3
2.297410317E1,-2.931976654E-3
2.298404017E1,-1.211736772E-2
2.299397717E1,-6.150156241E-3
2.300391317E1,-5.627396889E-4
2.301385017E1,-5.604446568E-3
2.302378717E1,-9.417488985E-3
2.303372417E1,-2.819436025E-3
2.304366017E1,-1.802221499E-4
2.305359717E1,1.305262987E-3
2.306353417E1,-3.708139714E-3
2.307347117E1,3.036166728E-4
2.308340717E1,4.313746803E-3
2.309334417E1,-7.751069069E-3
2.310328117E1,-5.388903581E-3
2.311321817E1,-9.148517065E-3
2.312315517E1,-1.071493132E-2
2.313309117E1,-6.771751810E-3
2.314302817E1,-8.931530546E-3
2.315296517E1,-1.009064969E-3
2.316290217E1,2.190184258E-3
2.317283817E1,-1.178729240E-2
2.318277517E1,-3.933275789E-3
2.319271217E1,-9.593837354E-3
2.320264917E1,-7.302222177E-3
2.321258517E1,-5.956649948E-3
2.322252217E1,-2.647856791E-3
2.323245917E1,-9.473622255E-3
2.324239617E1,-8.516761959E-3
2.325233217E1,-1.632067524E-3
2.326226917E1,-1.400943534E-2
2.327220617E1,-8.392015267E-3
2.328214317E1,-6.266954374E-3
2.329207917E1,-1.364354583E-2
2.330201617E1,-2.277015410E-3
2.331195317E1,-3.489526939E-3
2.332189017E1,-2.602979410E-3
2.333182717E1,-6.703467295E-3
2.334176317E1,8.614227735E-4
2.335170017E1,-2.645700630E-3
2.336163717E1,-8.320112787E-3
2.337157417E1,-4.870237280E-3
2.338151017E1,-2.899323609E-3
2.339144717E1,-2.935484983E-3
2.340138417E1,1.723813992E-3
2.341132117E1,-1.953627840E-3
2.342125717E1,-6.457336061E-4
2.343119417E1,-4.041814730E-3
2.344113117E1,-1.097494969E-2
2.345106817E1,4.757879376E-3
2.346100417E1,-6.531358156E-3
2.347094117E1,-1.127249988E-2
2.348087817E1,-4.901940152E-3
2.349081517E1,-1.214901578E-2
2.350075254E1,-1.415738817E-3
2.351068854E1,-3.684348855E-3
2.352062554E1,-1.378243547E-3
2.353056254E1,5.027838014E-3
2.354049954E1,-3.419780619E-3
2.355043554E1,-2.166009676E-3
2.356037254E1,5.342674032E-3
2.357030954E1,-4.144524727E-3
2.358024654E1,2.731508520E-3
2.359018254E1,-6.625955142E-3
2.360011954E1,-8.543787058E-3
2.361005654E1,2.035342678E-3
2.361999354E1,-4.832760282E-3
2.362992954E1,-2.839225195E-3
2.363986654E1,1.904968042E-3
2.364980354E1,-1.203850340E-3
2.365974054E1,-1.159320138E-3
2.366967654E1,-3.848692160E-3
2.367961354E1,-8.452881128E-4
2.368955054E1,-3.867860064E-3
2.369948754E1,-8.626817521E-3
2.370942454E1,-4.924049936E-3
2.371936054E1,-7.781145684E-3
2.372929754E1,-8.085420169E-3
2.373923454E1,3.266035393E-4
2.374917154E1,-1.158954687E-3
2.375910754E1,-3.674901947E-3
2.376904454E1,-4.688023422E-3
2.377898154E1,-9.267160725E-3
2.378891854E1,-4.769683443E-4
2.379885454E1,-4.625476487E-3
2.380879154E1,-3.849148974E-3
2.381872854E1,3.470084947E-3
2.382866554E1,-4.412583020E-3
2.383860154E1,-1.691672578E-3
2.384853854E1,4.343202151E-3
2.385847554E1,5.611682497E-4
2.386841254E1,-5.050167069E-4
2.387834854E1,5.285755042E-3
2.388828554E1,-3.521905895E-3
2.389822254E1,-8.999614064E-3
2.390815954E1,1.925780475E-3
2.391809554E1,-7.531761937E-4
2.392803254E1,-5.583268683E-3
2.393796954E1,-6.233862787E-4
2.394790654E1,-1.039799396E-2
2.395784354E1,-6.613237448E-3
2.396777954E1,-6.889244299E-3
2.397771654E1,-5.433141422E-3
2.398765354E1,-3.896438330E-4
2.399759054E1,-8.036833461E-3
2.400752654E1,-1.319077034E-3
2.401746354E1,-5.508990772E-4
2.402740054E1,-1.184919979E-3
2.403733754E1,1.387818363E-3
2.404727354E1,-7.303007897E-3
2.405721054E1,-3.555929381E-3
2.406714754E1,6.624895334E-4
2.407708454E1,-4.600698911E-3
2.408702054E1,-3.732168116E-4
2.409695754E1,-1.203890540E-2
2.410689454E1,-6.051173843E-3
2.411683154E1,-3.642175812E-3
2.412676854E1,-6.431206316E-3
2.413670454E1,-1.107088057E-2
2.414664154E1,-6.339752208E-3
2.415657854E1,-8.292046152E-3
2.416651554E1,-6.511203535E-3
2.417645154E1,-7.512374762E-3
2.418638854E1,-1.623168793E-3
2.419632554E1,-1.691252310E-3
2.420626254E1,-9.192389455E-3
2.421619854E1,-5.262585450E-3
2.422613554E1,-5.004887693E-3
2.423607254E1,-7.179010380E-3
2.424600954E1,-3.010603432E-3
2.425594554E1,1.063425802E-3
2.426588254E1,-2.163287066E-4
2.427581954E1,-2.711024992E-3
2.428575654E1,-8.216434345E-3
2.429569254E1,-7.521565855E-3
2.430562954E1,-5.710536987E-4
2.431556654E1,-2.957521677E-3
2.432550354E1,-3.658511471E-3
2.433543954E1,-2.239775956E-3
2.434537654E1,-8.662668262E-3
2.435531354E1,5.627817158E-3
2.436525054E1,2.836630493E-4
2.437518654E1,-7.290363293E-3
2.438512354E1,1.525410656E-3
2.439506054E1,1.610396281E-3
2.440499754E1,-6.303517744E-3
2.441493454E1,-1.812454127E-3
2.442487054E1,6.403614767E-3
2.443480754E1,1.977016702E-3
2.444474454E1,-1.683121026E-3
2.445468154E1,-3.575663734E-3
2.446461754E1,-3.722026851E-3
2.447455454E1,-1.159009505E-3
2.448449154E1,5.082948022E-3
2.449442833E1,-4.475659858E-3
2.450436433E1,1.118097268E-3
2.451430133E1,6.192036923E-3
2.452423833E1,9.828328975E-3
2.453417533E1,2.924959995E-3
2.454411133E1,-7.425306067E-3
2.455404833E1,-4.055720139E-3
2.456398533E1,5.049874708E-3
2.457392233E1,-7.091941684E-4
2.458385833E1,-8.990295064E-3
2.459379533E1,9.866262786E-4
2.460373233E1,-2.050910890E-4
2.461366933E1,-7.891968694E-3
2.462360533E1,-1.933601126E-3
2.463354233E1,-7.773873210E-4
2.464347933E1,4.271153491E-3
2.465341633E1,-7.138518412E-3
2.466335333E1,-3.224721160E-3
2.467328933E1,2.789067049E-3
2.468322633E1,2.848672103E-3
2.469316333E1,3.436244186E-3
2.470310033E1,-2.229287513E-3
2.471303633E1,-9.625156503E-3
2.472297333E1,3.202830646E-3
2.473291033E1,-7.622814048E-3
2.474284733E1,-4.971576836E-3
2.475278333E1,4.229948893E-3
2.476272033E1,5.614551287E-3
2.477265733E1,4.182074815E-3
2.478259433E1,5.713551957E-3
2.479253033E1,4.876395129E-4
2.480246733E1,-4.624873493E-3
2.481240433E1,-1.907891650E-3
2.482234133E1,-6.383752506E-3
2.483227733E1,-1.160690580E-3
2.484221433E1,1.114936117E-3
2.485215133E1,-8.714178577E-5
2.486208833E1,-5.155599676E-4
2.487202433E1,-3.673239145E-3
2.488196133E1,-8.602917027E-3
2.489189833E1,-3.827989362E-3
2.490183533E1,-9.479140565E-3
2.491177133E1,-3.381919898E-3
2.492170833E1,-2.562962528E-3
2.493164533E1,8.637726232E-3
2.494158233E1,-1.574125271E-3
2.495151933E1,2.963642981E-3
2.496145533E1,1.704061367E-3
2.497139233E1,-1.121422872E-3
2.498132933E1,2.390524484E-3
2.499126633E1,-2.993171420E-3
2.500120233E1,3.418464996E-3
2.501113933E1,-2.152323537E-3
2.502107633E1,5.274919420E-3
2.503101333E1,2.357944530E-3
2.504094933E1,2.554520611E-3
2.505088633E1,1.761455443E-3
2.506082333E1,7.144566625E-4
2.507076033E1,-7.032427993E-3
2.508069633E1,-5.931433830E-3
2.509063333E1,2.338009179E-3
2.510057033E1,3.392371796E-3
2.511050733E1,-7.691427469E-3
2.512044333E1,-9.457597230E-3
2.513038033E1,-1.529335599E-2
2.514031733E1,-1.763830874E-3
2.515025433E1,-7.118930239E-3
2.516019033E1,-3.006017022E-4
2.517012733E1,2.723633051E-3
2.518006433E1,3.393760510E-3
2.519000133E1,-3.042379394E-4
2.519993733E1,-6.666483656E-3
2.520987433E1,-6.925314311E-3
2.521981133E1,-3.685280755E-3
2.522974833E1,-2.262251191E-3
2.523968433E1,-4.780756608E-3
2.524962133E1,-5.190646425E-3
2.525955833E1,5.015394408E-3
2.526949533E1,-7.352362052E-3
2.527943133E1,6.271284968E-3
2.528936833E1,2.910232320E-3
2.529930533E1,5.535942782E-3
2.530924233E1,1.865225248E-3
2.531917833E1,-2.590846438E-3
2.532911533E1,-3.089577388E-3
2.533905233E1,-2.018933930E-3
2.534898933E1,3.663664330E-3
2.535892633E1,7.871083170E-3
2.536886233E1,-9.996363334E-4
2.537879933E1,-1.339597106E-3
2.538873633E1,-4.615444858E-3
2.539867333E1,-3.457641341E-3
2.540860933E1,-1.671773773E-3
2.541854633E1,-3.084826525E-3
2.542848333E1,1.663076039E-3
2.543842033E1,1.331155188E-3
2.544835633E1,-1.140499413E-3
2.545829333E1,9.897143394E-4
2.546823033E1,7.696982324E-3
2.547816733E1,2.835205235E-3
2.548810333E1,-2.737227827E-5
2.549804017E1,-6.599167585E-3
2.550797717E1,-2.423378527E-3
2.551791417E1,-8.251700364E-4
2.552785017E1,-6.455673259E-3
2.553778717E1,-4.486385845E-3
2.554772417E1,-8.721469324E-3
2.555766117E1,-2.092718482E-3
2.556759717E1,3.099755198E-3
2.557753417E1,-4.405365363E-3
2.558747117E1,-4.861777090E-4
2.559740817E1,1.399549339E-3
2.560734417E1,-2.830545735E-3
2.561728117E1,-2.884449754E-3
2.562721817E1,-6.535579115E-3
2.563715517E1,3.792778160E-3
2.564709117E1,5.220302772E-3
2.565702817E1,-6.647169571E-3
2.566696517E1,-3.988714702E-3
2.567690217E1,3.665783945E-3
2.568683817E1,1.454860345E-3
2.569677517E1,-5.942762811E-3
2.570671217E1,-8.959195185E-3
2.571664917E1,-4.827132337E-3
2.572658517E1,-4.680824038E-3
2.573652217E1,2.732294239E-4
2.574645917E1,-3.032676671E-3
2.575639617E1,1.851740107E-3
2.576633217E1,-4.057620484E-3
2.577626917E1,4.628034644E-3
2.578620617E1,-4.618642554E-3
2.579614317E1,-8.531781994E-3
2.580607917E1,-2.936727516E-3
2.581601617E1,2.188046370E-3
2.582595317E1,1.790892519E-3
2.583589017E1,-9.552742392E-3
2.584582617E1,6.723201647E-4
2.585576317E1,-8.494195361E-3
2.586570017E1,-3.383052796E-3
2.587563717E1,-1.966765802E-3
2.588557417E1,1.074590329E-3
2.589551017E1,-5.051756781E-3
2.590544717E1,1.779947262E-3
2.591538417E1,-2.728128098E-3
2.592532117E1,-1.535506239E-2
2.593525717E1,7.587858662E-4
2.594519417E1,-2.567823026E-3
2.595513117E1,-4.104142394E-3
2.596506817E1,-6.964216568E-4
2.597500417E1,-1.238495093E-3
2.598494117E1,3.898978215E-3
2.599487817E1,-9.015748724E-3
2.600481517E1,-5.728297904E-3
2.601475117E1,1.470465101E-3
2.602468817E1,-5.100197308E-3
2.603462517E1,1.590588838E-3
2.604456217E1,2.872079238E-3
2.605449817E1,3.201295752E-3
2.606443517E1,2.959111389E-3
2.607437217E1,-6.190008670E-4
2.608430917E1,5.523937717E-3
2.609424517E1,-8.895588443E-3
2.610418217E1,-3.401928339E-3
2.611411917E1,4.796653725E-3
2.612405617E1,3.170780595E-3
2.613399217E1,-4.073097333E-3
2.614392917E1,2.787130158E-3
2.615386617E1,4.585697148E-3
2.616380317E1,-5.497899335E-3
2.617373917E1,-5.240914207E-3
2.618367617E1,-4.135900084E-3
2.619361317E1,-5.571866613E-3
2.620355017E1,6.966409273E-4
2.621348617E1,-1.135456190E-3
2.622342317E1,2.106368076E-3
2.623336017E1,-6.378051471E-3
2.624329717E1,-1.343556767E-2
2.625323317E1,-3.343657181E-3
2.626317017E1,-3.302836306E-3
2.627310717E1,-1.835842989E-4
2.628304417E1,-1.647909824E-3
2.629298017E1,-2.351110596E-3
2.630291717E1,-4.945976995E-3
2.631285417E1,-6.211954001E-3
2.632279117E1,-5.418157931E-3
2.633272717E1,-6.319487952E-3
2.634266417E1,-3.137396649E-5
2.635260117E1,-5.458211359E-3
2.636253817E1,-3.041337859E-3
2.637247417E1,-5.671616457E-4
2.638241117E1,-4.923300762E-3
2.639234817E1,-3.590464499E-3
2.640228517E1,-1.466006599E-3
2.641222117E1,-1.203799177E-2
2.642215817E1,-5.007537212E-3
2.643209517E1,-2.767468896E-3
2.644203217E1,-2.808435950E-3
2.645196817E1,-1.541654952E-3
2.646190517E1,2.543173358E-4
2.647184217E1,-3.313763291E-3
2.648177917E1,-3.647456579E-3
2.649171517E1,-3.775126878E-3
2.650165171E1,-4.998638481E-4
2.651158871E1,-4.869378470E-3
2.652152571E1,-2.577690203E-3
2.653146171E1,-1.201054640E-3
2.654139871E1,-3.860697225E-3
2.655133571E1,1.660024524E-3
2.656127271E1,-2.044387590E-3
2.657120871E1,-3.518616837E-3
2.658114571E1,-5.056745186E-4
2.659108271E1,-4.307698589E-3
2.660101971E1,-9.220894631E-3
2.661095571E1,-1.455682609E-3
2.662089271E1,-9.237760194E-3
2.663082971E1,-1.049335839E-2
2.664076671E1,-5.265472513E-3
2.665070271E1,-1.140609048E-2
2.666063971E1,-3.329386320E-3
2.667057671E1,-7.603956778E-3
2.668051371E1,-7.907207999E-3
2.669044971E1,-4.777997453E-3
2.670038671E1,-4.282336291E-3
2.671032371E1,-8.396565132E-3
2.672026071E1,-1.046030335E-3
2.673019671E1,-3.894574530E-3
2.674013371E1,-3.738344237E-3
2.675007071E1,-8.202108666E-3
2.676000771E1,-2.759154886E-3
2.676994371E1,2.630698867E-3
2.677988071E1,8.724045753E-4
2.678981771E1,-9.348455295E-3
2.679975471E1,-8.564398494E-3
2.680969071E1,4.128591064E-3
2.681962771E1,-4.560225215E-3
2.682956471E1,-3.295636922E-3
2.683950171E1,-6.238467470E-3
2.684943771E1,-5.763618741E-3
2.685937471E1,1.026369072E-3
2.686931171E1,-7.998077385E-4
2.687924871E1,-9.532057866E-4
2.688918471E1,-8.864726108E-3
2.689912171E1,-8.860468604E-3
2.690905871E1,-4.898852091E-3
2.691899571E1,-1.661394965E-3
2.692893171E1,-1.354379598E-3
2.693886871E1,-2.695986684E-3
2.694880571E1,-2.096281629E-3
2.695874271E1,4.247435723E-3
2.696867971E1,3.453877196E-3
2.697861571E1,-7.323728967E-3
2.698855271E1,-1.137009356E-3
2.699848971E1,3.539209999E-4
2.700842571E1,-6.370084640E-3
2.701836271E1,-6.384757496E-3
2.702829971E1,-3.045303002E-4
2.703823671E1,-8.357973509E-3
2.704817271E1,-4.017950781E-3
2.705810971E1,-4.240291156E-3
2.706804671E1,-1.688438337E-3
2.707798371E1,-6.107343659E-3
2.708791971E1,-1.397279888E-2
2.709785671E1,-5.900059864E-3
2.710779371E1,-9.296981525E-3
2.711773071E1,-1.744114794E-3
2.712766671E1,-6.408932079E-3
2.713760371E1,-7.516851537E-3
2.714754071E1,-3.709144704E-3
2.715747771E1,-5.664435346E-3
2.716741371E1,-4.138348605E-3
2.717735071E1,-2.160893362E-3
2.718728771E1,1.009594873E-3
2.719722471E1,8.498562500E-4
2.720716071E1,3.555838019E-5
2.721709771E1,-9.899902549E-3
2.722703471E1,8.656802773E-4
2.723697171E1,-6.118563004E-4
2.724690771E1,-1.334826143E-2
2.725684471E1,2.094966006E-3
2.726678171E1,6.489824653E-3
2.727671871E1,-6.892405450E-4
2.728665471E1,-2.624979559E-3
2.729659171E1,-2.505276091E-3
2.730652871E1,-7.818622682E-3
2.731646571E1,-7.090699151E-3
2.732640171E1,2.593678683E-3
2.733633871E1,1.842877921E-3
2.734627571E1,2.344733477E-4
2.735621271E1,9.589433670E-5
2.736614871E1,-8.479431141E-3
2.737608571E1,-7.489954345E-3
2.738602271E1,-3.857371621E-3
2.739595971E1,-9.491858259E-4
2.740589571E1,4.294871259E-3
2.741583271E1,-3.895542976E-3
2.742576971E1,-4.774434306E-3
2.743570671E1,-3.819382992E-3
2.744564271E1,-1.106088549E-2
2.745557971E1,4.680330679E-4
2.746551671E1,-3.892327007E-3
2.747545371E1,-3.274258040E-4
2.748538971E1,8.956472576E-4
2.749532671E1,-9.369249456E-3
2.750526429E1,-8.049697336E-3
2.751520129E1,-4.095188845E-3
2.752513729E1,4.406516533E-3
2.753507429E1,-5.343989655E-3
2.754501129E1,-9.780034628E-3
2.755494829E1,-1.170910416E-2
2.756488429E1,-2.052975688E-3
2.757482129E1,-4.850228839E-3
2.758475829E1,-1.138600895E-2
2.759469529E1,-6.208043676E-3
2.760463129E1,-4.811344855E-4
2.761456829E1,-8.133257702E-3
2.762450529E1,-5.674777608E-3
2.763444229E1,-2.443971690E-3
2.764437829E1,3.424513210E-3
2.765431529E1,-2.862303425E-3
2.766425229E1,-1.170777027E-3
2.767418929E1,-2.887099274E-3
2.768412529E1,3.401983157E-4
2.769406229E1,-8.860048335E-3
2.770399929E1,-4.731311090E-4
2.771393629E1,-4.261030499E-3
2.772387229E1,-1.045445614E-2
2.773380929E1,3.456417080E-3
2.774374629E1,-6.075019520E-3
2.775368329E1,-7.229442615E-3
2.776361929E1,-7.377797440E-3
2.777355629E1,2.512036934E-3
2.778349329E1,1.437099427E-3
2.779343029E1,5.471385866E-3
2.780336629E1,-9.417013898E-3
2.781330329E1,-3.413842041E-3
2.782324029E1,7.880767621E-4
2.783317729E1,-2.832519170E-3
2.784311329E1,-5.278007481E-3
2.785305029E1,-7.158965394E-3
2.786298729E1,-1.401299849E-2
2.787292429E1,-9.196299780E-3
2.788286029E1,-2.866451293E-3
2.789279729E1,-1.390723698E-4
2.790273429E1,-1.021254586E-2
2.791267029E1,2.429371923E-3
2.792260729E1,5.246012248E-3
2.793254429E1,6.391152889E-3
2.794248129E1,-1.064211521E-3
2.795241829E1,-3.887174148E-3
2.796235429E1,-7.897761092E-4
2.797229129E1,-3.578660432E-3
2.798222829E1,3.110536002E-3
2.799216429E1,-1.594078895E-3
2.800210129E1,-1.137703713E-3
2.801203829E1,-3.636803683E-3
2.802197529E1,-4.013857730E-3
2.803191129E1,-2.187644374E-3
2.804184829E1,-3.249389101E-3
2.805178529E1,-5.625533089E-3
2.806172229E1,-5.208334252E-3
2.807165829E1,3.003641590E-4
2.808159529E1,-6.669809259E-3
2.809153229E1,-9.157781247E-3
2.810146929E1,3.324690275E-3
2.811140529E1,5.245610252E-3
2.812134229E1,4.293446001E-3
2.813127929E1,9.076523222E-4
2.814121629E1,1.301498841E-3
2.815115229E1,-1.966235898E-3
2.816108929E1,-2.255070079E-3
2.817102629E1,-4.098605812E-3
2.818096329E1,-5.589590985E-3
2.819089929E1,3.605338354E-3
2.820083629E1,-2.828755025E-3
2.821077329E1,-1.754402239E-3
2.822071029E1,-6.353511438E-3
2.823064629E1,5.924106538E-3
2.824058329E1,2.480224427E-3
2.825052029E1,-6.825802010E-3
2.826045729E1,-5.950017013E-3
2.827039329E1,-2.742965408E-3
2.828033029E1,4.355006218E-3
2.829026729E1,-2.643489651E-3
2.830020429E1,-3.236269411E-3
2.831014029E1,-4.515768103E-3
2.832007729E1,-7.293031085E-3
2.833001429E1,-8.951118719E-3
2.833995129E1,-4.919573162E-3
2.834988729E1,-6.962900944E-3
2.835982429E1,2.097140439E-4
2.836976129E1,3.508658297E-3
2.837969829E1,-2.817279864E-3
2.838963429E1,-4.251693226E-3
2.839957129E1,-2.537636776E-3
2.840950829E1,-2.975172959E-3
2.841944529E1,2.131127380E-3
2.842938129E1,-4.758354463E-4
2.843931829E1,-1.269686334E-3
2.844925529E1,-2.765513733E-3
2.845919129E1,-7.012127191E-3
2.846912829E1,1.145506091E-4
2.847906529E1,3.401709069E-3
2.848900229E1,3.872190658E-3
2.849893829E1,-2.784718182E-3
2.850887529E1,-1.100336351E-2
2.851881229E1,-4.933387209E-3
2.852874929E1,4.421646204E-3
2.853868529E1,4.668672793E-3
2.854862229E1,-5.381265655E-5
2.855855929E1,1.273413934E-4
2.856849629E1,-1.216641124E-3
2.857843229E1,-6.149626337E-4
2.858836929E1,2.702162806E-3
2.859830629E1,-1.088313013E-4
2.860824329E1,3.601062577E-3
2.861817929E1,4.993814528E-3
2.862811629E1,4.482237976E-3
2.863805329E1,-3.833763488E-3
2.864799029E1,-5.300373081E-3
2.865792629E1,-4.060452729E-3
2.866786329E1,-4.268284701E-3
2.867780029E1,-3.432352133E-3
2.868773729E1,4.525014013E-4
2.869767329E1,-5.983894318E-3
2.870761029E1,-3.363354988E-3
2.871754729E1,-1.029767767E-3
2.872748429E1,-1.555231456E-3
2.873742029E1,-4.251638409E-3
2.874735729E1,-1.808032170E-3
2.875729429E1,-4.402843751E-3
2.876723129E1,5.388574675E-4
2.877716729E1,-2.095422819E-3
2.878710429E1,8.515026066E-3
2.879704129E1,-2.849457823E-3
2.880697829E1,-2.312646881E-3
2.881691429E1,1.615549140E-3
2.882685129E1,-7.173418980E-3
2.883678829E1,-3.158227354E-4
2.884672529E1,1.797982268E-3
2.885666129E1,2.404740527E-3
2.886659829E1,2.379688863E-3
2.887653529E1,-1.035287904E-2
2.888647129E1,-3.723269384E-3
2.889640829E1,-4.045231696E-3
2.890634529E1,3.872501291E-3
2.891628229E1,-1.486490127E-3
2.892621829E1,-2.104248460E-3
2.893615529E1,-1.346522402E-3
2.894609229E1,-8.730824869E-3
2.895602929E1,2.741996963E-3
2.896596529E1,-8.165965565E-3
2.897590229E1,8.319856972E-4
2.898583929E1,-6.629426926E-3
2.899577629E1,-7.159184664E-5
2.900571229E1,-8.757667243E-4
2.901564929E1,-1.976413708E-3
2.902558629E1,-2.865793481E-3
2.903552329E1,-5.423657969E-3
2.904545929E1,6.713882647E-4
2.905539629E1,1.596417781E-3
2.906533329E1,4.115160741E-4
2.907527029E1,-8.061318677E-3
2.908520629E1,-2.770136688E-3
2.909514329E1,-3.589788415E-3
2.910508029E1,-2.070590425E-3
2.911501729E1,-2.776239719E-3
2.912495329E1,1.570397671E-3
2.913489029E1,3.032512218E-3
2.914482729E1,4.616815299E-3
2.915476329E1,-3.635579422E-3
2.916470029E1,1.723795719E-3
2.917463729E1,-2.002707906E-3
2.918457429E1,-8.261019364E-4
2.919451029E1,1.198861934E-4
2.920444729E1,-2.658619322E-3
2.921438429E1,-5.590961426E-3
2.922432129E1,6.253779866E-4
2.923425729E1,-1.169534493E-3
2.924419429E1,-2.503777742E-3
2.925413129E1,2.278184853E-3
2.926406829E1,-4.133086111E-3
2.927400429E1,-4.632365238E-3
2.928394129E1,5.220467225E-3
2.929387829E1,-3.096173778E-3
2.930381529E1,5.468937345E-3
2.931375129E1,-4.359720536E-3
2.932368829E1,6.024093926E-4
2.933362529E1,-4.258161709E-3
2.934356229E1,1.321397647E-3
2.935349829E1,-4.617838562E-3
2.936343529E1,-7.832162641E-4
2.937337229E1,-9.907577019E-3
2.938330929E1,-9.537046272E-3
2.939324529E1,-7.436872590E-3
2.940318229E1,-2.083235029E-3
2.941311929E1,-1.154971272E-3
2.942305629E1,1.577213332E-3
2.943299229E1,-2.237437069E-3
2.944292929E1,-4.929202795E-3
2.945286629E1,-9.265095927E-4
2.946280229E1,-4.652209226E-3
2.947273929E1,1.566012260E-3
2.948267629E1,-5.743920933E-3
2.949261329E1,-4.403081294E-3
2.950254904E1,-1.867874768E-3
2.951248604E1,-3.622788638E-3
2.952242304E1,-3.291269783E-3
2.953236004E1,-2.966858950E-3
2.954229604E1,-4.279796407E-4
2.955223304E1,-9.344563242E-3
2.956217004E1,-7.684849352E-3
2.957210704E1,-1.678388435E-3
2.958204304E1,2.426137682E-3
2.959198004E1,1.732164547E-3
2.960191704E1,6.954879295E-3
2.961185404E1,6.998386234E-5
2.962179004E1,4.717423953E-4
2.963172704E1,-5.493587013E-3
2.964166404E1,1.420306955E-3
2.965160104E1,4.026721604E-4
2.966153704E1,3.457348980E-3
2.967147404E1,-2.682921812E-3
2.968141104E1,-3.676071391E-4
2.969134704E1,7.182098441E-3
2.970128404E1,1.555724815E-3
2.971122104E1,6.454229727E-4
2.972115804E1,5.016180128E-4
2.973109404E1,5.135664325E-3
2.974103104E1,2.299618553E-3
2.975096804E1,-1.166492114E-2
2.976090504E1,-4.941774309E-3
2.977084104E1,7.575616054E-3
2.978077804E1,1.427725609E-3
2.979071504E1,-1.064430792E-3
2.980065204E1,-8.416153304E-3
2.981058804E1,1.090871170E-5
2.982052504E1,2.922146022E-4
2.983046204E1,2.319681812E-3
2.984039904E1,-1.974330638E-3
2.985033504E1,2.901973128E-3
2.986027204E1,-2.032985520E-3
2.987020904E1,1.277269442E-3
2.988014604E1,-1.721804012E-3
2.989008204E1,9.900797904E-4
2.990001904E1,5.267171860E-3
2.990995604E1,3.209810760E-3
2.991989204E1,-5.993834585E-3
2.992982904E1,-2.982335798E-3
2.993976604E1,2.283027079E-3
2.994970304E1,1.973307375E-3
2.995963904E1,8.229042403E-4
2.996957604E1,2.187955007E-3
2.997951304E1,2.431473266E-3
2.998945004E1,-1.493963599E-4
2.999938604E1,-1.508453730E-3
3.000932304E1,7.967324685E-3
3.001926004E1,1.615275051E-3
3.002919704E1,4.847889952E-3
3.003913304E1,-2.124786805E-3
3.004907004E1,7.154506892E-3
3.005900704E1,7.341800518E-3
3.006894304E1,-2.726136390E-3
3.007888004E1,-3.166614454E-3
3.008881704E1,2.250666395E-3
3.009875404E1,5.461427327E-3
3.010869004E1,9.754434787E-4
3.011862704E1,-1.271349136E-3
3.012856404E1,-2.369730324E-3
3.013850104E1,2.321801428E-3
3.014843704E1,-4.558818229E-4
3.015837404E1,4.918842260E-3
3.016831104E1,7.091448326E-3
3.017824804E1,-1.502807513E-3
3.018818404E1,5.474455655E-4
3.019812104E1,-8.766986243E-4
3.020805804E1,-3.226584960E-3
3.021799504E1,-6.118855365E-3
3.022793104E1,-5.841806978E-3
3.023786804E1,2.985917218E-4
3.024780504E1,-8.809488192E-3
3.025774204E1,1.881414726E-3
3.026767804E1,-6.972676758E-3
3.027761504E1,1.482634619E-4
3.028755204E1,-1.841726750E-3
3.029748904E1,5.698002018E-3
3.030742504E1,6.362574622E-3
3.031736204E1,1.126758456E-3
3.032729904E1,-5.754080471E-3
3.033723504E1,3.262563609E-3
3.034717204E1,-5.550999362E-3
3.035710904E1,1.046072362E-2
3.036704604E1,8.650224656E-5
3.037698204E1,-7.357971724E-3
3.038691904E1,1.123907939E-3
3.039685604E1,-7.168869115E-4
3.040679304E1,-6.377375387E-3
3.041672904E1,-7.685781252E-3
3.042666604E1,-5.875994917E-3
3.043660304E1,1.180534568E-3
3.044654004E1,9.308895227E-3
3.045647604E1,-1.078721752E-2
3.046641304E1,1.478925291E-3
3.047635004E1,3.222692907E-3
3.048628704E1,-1.586020701E-3
3.049622304E1,-7.428942304E-3
3.050616054E1,-1.018036790E-3
3.051609754E1,-5.726233106E-3
3.052603354E1,-5.806266870E-3
3.053597054E1,-9.668371081E-4
3.054590754E1,-2.166192401E-3
3.055584454E1,-1.239920352E-3
3.056578054E1,5.267062224E-4
3.057571754E1,6.316052713E-3
3.058565454E1,-5.380918477E-3
3.059559154E1,-8.607320711E-3
3.060552754E1,-2.733134776E-3
3.061546454E1,-4.002802838E-3
3.062540154E1,2.508875784E-3
3.063533854E1,-1.047605429E-2
3.064527454E1,-1.414302595E-2
3.065521154E1,-6.906749401E-3
3.066514854E1,-1.444993168E-3
3.067508454E1,1.559214871E-3
3.068502154E1,2.969508469E-3
3.069495854E1,5.446425565E-3
3.070489554E1,-5.869307164E-3
3.071483154E1,-9.785772208E-3
3.072476854E1,-8.211720027E-3
3.073470554E1,-1.867089048E-3
3.074464254E1,2.484609839E-3
3.075457854E1,-1.267767716E-3
3.076451554E1,-4.584125709E-3
3.077445254E1,4.920066521E-4
3.078438954E1,6.937904097E-4
3.079432554E1,-8.354574814E-3
3.080426254E1,-2.363188751E-4
3.081419954E1,8.809122741E-3
3.082413654E1,1.399805155E-3
3.083407254E1,-1.384291761E-3
3.084400954E1,1.876225322E-4
3.085394654E1,1.495474739E-2
3.086388254E1,8.894382454E-3
3.087381954E1,-3.559839707E-3
3.088375654E1,3.521302901E-4
3.089369354E1,-3.535756487E-3
3.090362954E1,-3.911732454E-3
3.091356654E1,1.066751406E-3
3.092350354E1,1.204873603E-3
3.093344054E1,3.106570859E-3
3.094337654E1,-8.152571786E-3
3.095331354E1,2.561829630E-3
3.096325054E1,-4.643986579E-3
3.097318754E1,-1.002888847E-3
3.098312354E1,2.493362390E-3
3.099306054E1,1.976925340E-3
3.100299754E1,6.082566082E-4
3.101293354E1,-1.044458896E-4
3.102287054E1,4.930500146E-3
3.103280754E1,-4.310622197E-3
3.104274454E1,-8.522316813E-4
3.105268054E1,1.374570765E-3
3.106261754E1,-4.241625052E-3
3.107255454E1,-3.866252080E-3
3.108249154E1,-1.743438710E-3
3.109242754E1,-7.447105218E-3
3.110236454E1,1.331173461E-3
3.111230154E1,-4.285022356E-3
3.112223854E1,-1.398233715E-3
3.113217454E1,6.404382214E-3
3.114211154E1,-4.037813041E-3
3.115204854E1,-8.629942127E-4
3.116198454E1,2.607109006E-3
3.117192154E1,-4.240693152E-3
3.118185854E1,2.534548715E-3
3.119179554E1,-2.770173233E-3
3.120173154E1,-1.429589409E-3
3.121166854E1,-6.863534823E-4
3.122160554E1,3.669950087E-3
3.123154254E1,-5.360343587E-3
3.124147854E1,-2.143004537E-3
3.125141554E1,-1.121934503E-5
3.126135254E1,3.564846385E-3
3.127128954E1,4.480520356E-3
3.128122554E1,3.734744545E-3
3.129116254E1,-2.426484860E-3
3.130109954E1,6.661988609E-3
3.131103554E1,5.783718545E-3
3.132097254E1,1.263309214E-3
3.133090954E1,-2.516440619E-3
3.134084654E1,-8.758087512E-3
3.135078254E1,-1.170375030E-3
3.136071954E1,4.036588781E-3
3.137065654E1,-1.224078052E-3
3.138059354E1,4.011738114E-3
3.139052954E1,-1.344643984E-2
3.140046654E1,-5.028550643E-3
3.141040354E1,1.211268995E-3
3.142034054E1,-7.375714369E-3
3.143027654E1,-1.329035573E-3
3.144021354E1,-1.935245655E-4
3.145015054E1,5.508771501E-3
3.146008654E1,-6.781673804E-4
3.147002354E1,-2.148851752E-3
3.147996054E1,3.184521552E-3
3.148989754E1,2.954963520E-3
3.149983354E1,2.935320530E-3
3.150977029E1,1.168312060E-2
3.151970729E1,3.684184402E-3
3.152964429E1,-1.232757512E-3
3.153958029E1,-3.142713960E-3
3.154951729E1,-1.813148484E-3
3.155945429E1,-2.073514033E-3
3.156939129E1,-1.048551947E-3
3.157932729E1,2.450312264E-3
3.158926429E1,5.450701341E-4
3.159920129E1,4.783022404E-4
3.160913729E1,3.167802170E-3
3.161907429E1,2.954049893E-3
3.162901129E1,1.558465697E-4
3.163894829E1,2.831441090E-3
3.164888429E1,-1.468911935E-3
3.165882129E1,1.308296230E-3
3.166875829E1,-8.095104620E-3
3.167869529E1,1.114771664E-3
3.168863129E1,1.353153510E-2
3.169856829E1,8.353551552E-3
3.170850529E1,-9.486394767E-3
3.171844229E1,-3.772075363E-3
3.172837829E1,-5.413973518E-4
3.173831529E1,1.646064296E-3
3.174825229E1,-5.533055719E-3
3.175818829E1,-3.300369512E-3
3.176812529E1,2.256659791E-5
3.177806229E1,8.237667046E-3
3.178799929E1,-9.727208689E-4
3.179793529E1,-1.165033964E-2
3.180787229E1,-2.954323981E-3
3.181780929E1,4.821815025E-3
3.182774629E1,-8.500663843E-3
3.183768229E1,-1.722735912E-3
3.184761929E1,5.629772320E-5
3.185755629E1,-5.260776468E-3
3.186749229E1,-5.337100904E-3
3.187742929E1,-4.693706185E-3
3.188736629E1,-4.719963837E-3
3.189730329E1,-1.566085350E-3
3.190723929E1,-3.277236465E-3
3.191717629E1,5.626117811E-4
3.192711329E1,-9.747107495E-3
3.193705029E1,-1.945624463E-3
3.194698629E1,-6.811659057E-3
3.195692329E1,5.420204457E-3
3.196686029E1,-2.600530889E-3
3.197679729E1,-7.313587703E-4
3.198673329E1,-3.745470531E-3
3.199667029E1,-3.363976255E-5
3.200660729E1,2.608333267E-3
3.201654329E1,-2.721988522E-3
3.202648029E1,-4.132830296E-3
3.203641729E1,-3.023942392E-3
3.204635429E1,-9.585779160E-4
3.205629029E1,5.254106987E-3
3.206622729E1,-3.280781340E-3
3.207616429E1,4.063723516E-3
3.208610129E1,1.109161992E-3
3.209603729E1,1.284150884E-2
3.210597429E1,3.350874837E-3
3.211591129E1,-1.899047736E-3
3.212584729E1,-1.187130958E-3
3.213578429E1,2.189636081E-3
3.214572129E1,-1.574454177E-3
3.215565829E1,6.128978357E-4
3.216559429E1,-6.101441626E-3
3.217553129E1,2.279683203E-3
3.218546829E1,-5.675270967E-3
3.219540529E1,-6.054389812E-3
3.220534129E1,-2.403991353E-3
3.221527829E1,-3.042909298E-3
3.222521529E1,-5.119018033E-3
3.223515129E1,-1.989149675E-3
3.224508829E1,-3.829195350E-3
3.225502529E1,6.192384101E-4
3.226496229E1,3.356027696E-3
3.227489829E1,7.246892899E-5
3.228483529E1,8.891056851E-4
3.229477229E1,3.202574831E-3
3.230470929E1,4.993503895E-3
3.231464529E1,-4.135077819E-5
3.232458229E1,-1.153290197E-3
3.233451929E1,3.725991994E-3
3.234445629E1,-1.118097268E-4
3.235439229E1,9.661244787E-4
3.236432929E1,-5.378524773E-4
3.237426629E1,-3.718226161E-3
3.238420229E1,-1.422335207E-4
3.239413929E1,-5.294324867E-3
3.240407629E1,-7.412076741E-4
3.241401329E1,1.737171225E-3
3.242394929E1,-5.091188941E-3
3.243388629E1,-6.739098765E-4
3.244382329E1,3.417514823E-4
3.245376029E1,1.625471134E-3
3.246369629E1,-3.677624557E-3
3.247363329E1,-1.559507232E-3
3.248357029E1,-1.433614852E-2
3.249350629E1,-8.623912185E-4
3.250344271E1,1.679119337E-3
3.251337971E1,-1.818264797E-3
3.252331671E1,1.010563318E-3
3.253325271E1,-6.529220268E-3
3.254318971E1,-1.537452266E-4
3.255312671E1,-1.692677569E-3
3.256306371E1,-3.754113447E-3
3.257299971E1,-1.547721438E-3
3.258293671E1,3.509955648E-3
3.259287371E1,-7.750118896E-4
3.260280971E1,2.528902497E-3
3.261274671E1,1.142673846E-3
3.262268371E1,-4.450462013E-4
3.263262071E1,6.760843098E-7
3.264255671E1,-3.048080429E-3
3.265249371E1,-4.609944820E-3
3.266243071E1,2.316959202E-3
3.267236771E1,-1.153765284E-3
3.268230371E1,-4.222932234E-3
3.269224071E1,1.496339031E-4
3.270217771E1,-6.019964330E-3
3.271211471E1,-6.375566404E-3
3.272205071E1,-8.742994387E-3
3.273198771E1,6.786424667E-5
3.274192471E1,-5.294324867E-3
3.275186071E1,-4.605961405E-4
3.276179771E1,4.504146762E-3
3.277173471E1,-4.445455335E-3
3.278167171E1,-3.686742559E-3
3.279160771E1,9.989785217E-4
3.280154471E1,-1.013724469E-3
3.281148171E1,-4.118449800E-3
3.282141771E1,-2.252347469E-3
3.283135471E1,-3.618183956E-3
3.284129171E1,-2.932597920E-3
3.285122871E1,-8.083428461E-3
3.286116471E1,-6.991278213E-3
3.287110171E1,-7.481146976E-3
3.288103871E1,-2.509551868E-3
3.289097571E1,-8.235839792E-3
3.290091171E1,-6.167277619E-3
3.291084871E1,4.549681954E-4
3.292078571E1,-2.310253177E-3
3.293072171E1,2.033643331E-3
3.294065871E1,-3.034175020E-3
3.295059571E1,-7.370031606E-3
3.296053271E1,-1.360707382E-2
3.297046871E1,-7.711600363E-3
3.298040571E1,-1.913245507E-3
3.299034271E1,3.939049914E-3
3.300027971E1,-9.533081129E-3
3.301021571E1,-2.157969754E-3
3.302015271E1,-6.876289062E-3
3.303008971E1,1.475142874E-3
3.304002671E1,-1.504415497E-3
3.304996271E1,3.248201385E-3
3.305989971E1,-1.110002529E-3
3.306983671E1,-8.033708856E-4
3.307977271E1,2.448046468E-3
3.308970971E1,8.149556816E-4
3.309964671E1,-1.617613938E-3
3.310958371E1,9.121108241E-4
3.311951971E1,-1.556364354E-3
3.312945671E1,-1.599030755E-3
3.313939371E1,-1.222122889E-3
3.314932971E1,-4.226550199E-3
3.315926671E1,2.807083782E-3
3.316920371E1,4.503178317E-3
3.317914071E1,-1.233488414E-3
3.318907671E1,4.167785682E-4
3.319901371E1,-4.061603900E-3
3.320895071E1,3.886717334E-3
3.321888771E1,-3.964503575E-3
3.322882371E1,-1.432531290E-3
3.323876071E1,-2.093230113E-3
3.324869771E1,1.165057719E-3
3.325863371E1,3.811397888E-3
3.326857071E1,-1.754329149E-3
3.327850771E1,-1.927132644E-3
3.328844471E1,5.858727358E-4
3.329838071E1,4.771346245E-3
3.330831771E1,-7.173016984E-3
3.331825471E1,-3.794842958E-4
3.332819171E1,-8.779959753E-5
3.333812771E1,-7.658207975E-3
3.334806471E1,-5.408309028E-4
3.335800171E1,-5.034525767E-3
3.336793771E1,-2.505093366E-3
3.337787471E1,5.716018751E-3
3.338781171E1,1.988309138E-3
3.339774871E1,1.684601102E-3
3.340768471E1,-3.297957536E-3
3.341762171E1,-2.040623445E-3
3.342755871E1,-5.750480779E-3
3.343749471E1,3.786218315E-3
3.344743171E1,1.281819306E-3
3.345736871E1,1.868240219E-3
3.346730571E1,-5.215095095E-3
3.347724171E1,-3.056631982E-4
3.348717871E1,3.548675179E-3
3.349711571E1,-5.219919048E-4
3.350705346E1,-2.662547920E-3
3.351698946E1,-7.698791306E-3
3.352692646E1,-6.947058644E-3
3.353686346E1,-7.457758114E-4
3.354679946E1,-8.702411056E-3
3.355673646E1,-1.773204692E-3
3.356667346E1,1.079706643E-3
3.357661046E1,-2.312793061E-3
3.358654646E1,1.522322595E-3
3.359648346E1,3.768329490E-3
3.360642046E1,3.017857634E-3
3.361635746E1,-2.814685162E-3
3.362629346E1,-6.414888930E-3
3.363623046E1,-3.916903585E-4
3.364616746E1,1.234676130E-3
3.365610346E1,-4.945337456E-3
3.366604046E1,-7.118911967E-3
3.367597746E1,-3.633368444E-3
3.368591446E1,3.316650353E-4
3.369585046E1,7.801336851E-3
3.370578746E1,-2.726501841E-3
3.371572446E1,4.226678107E-3
3.372566146E1,1.934332028E-3
3.373559746E1,-2.648021244E-3
3.374553446E1,3.386323582E-3
3.375547146E1,-3.332967740E-3
3.376540746E1,2.866798472E-3
3.377534446E1,-6.715892628E-4
3.378528146E1,-1.040073484E-3
3.379521846E1,-2.894426566E-3
3.380515446E1,-6.164390557E-3
3.381509146E1,-1.305993889E-3
3.382502846E1,2.158207297E-3
3.383496446E1,1.331147879E-2
3.384490146E1,6.110139359E-3
3.385483846E1,-8.186412547E-3
3.386477546E1,-8.642732911E-4
3.387471146E1,-3.077078965E-3
3.388464846E1,-3.816605564E-3
3.389458546E1,5.221673213E-3
3.390452246E1,5.430802535E-3
3.391445846E1,1.192667540E-3
3.392439546E1,5.993396044E-5
3.393433246E1,-5.780429486E-3
3.394426846E1,-3.480609935E-3
3.395420546E1,-5.501572117E-3
3.396414246E1,2.208383717E-3
3.397407946E1,8.555755578E-4
3.398401546E1,-9.309132770E-4
3.399395246E1,-1.947926804E-3
3.400388946E1,4.034670163E-3
3.401382546E1,-2.316794749E-3
3.402376246E1,2.142529450E-3
3.403369946E1,-2.674918436E-4
3.404363646E1,6.759911198E-3
3.405357246E1,-6.294344924E-4
3.406350946E1,5.665970240E-3
3.407344646E1,-4.028512314E-3
3.408338346E1,3.224246074E-3
3.409331946E1,1.507075980E-2
3.410325646E1,6.403961945E-3
3.411319346E1,-2.394690625E-3
3.412312946E1,5.910895485E-3
3.413306646E1,6.244972497E-3
3.414300346E1,-4.698603228E-3
3.415294046E1,-6.335001346E-3
3.416287646E1,6.934615038E-4
3.417281346E1,2.038248014E-3
3.418275046E1,-3.031233139E-4
3.419268646E1,4.733686522E-4
3.420262346E1,3.384039514E-3
3.421256046E1,2.187425103E-3
3.422249746E1,8.867357355E-3
3.423243346E1,-1.693481561E-3
3.424237046E1,2.281218097E-3
3.425230746E1,1.687232349E-3
3.426224446E1,5.497424249E-3
3.427218046E1,4.399664328E-3
3.428211746E1,-2.303620242E-4
3.429205446E1,1.124858111E-4
3.430199046E1,4.440320749E-3
3.431192746E1,3.933568150E-3
3.432186446E1,4.681262579E-3
3.433180146E1,6.621880364E-3
3.434173746E1,-1.208820473E-3
3.435167446E1,-4.081886429E-3
3.436161146E1,3.708888888E-3
3.437154846E1,1.532924328E-2
3.438148446E1,7.903078403E-3
3.439142146E1,3.809661996E-3
3.440135846E1,4.320726916E-4
3.441129446E1,3.258050289E-3
3.442123146E1,9.969575778E-3
3.443116846E1,-2.495902274E-3
3.444110546E1,-3.730651494E-3
3.445104146E1,5.711468887E-3
3.446097846E1,8.264856599E-3
3.447091546E1,-8.540041186E-4
3.448085146E1,-2.707973476E-3
3.449078846E1,3.955751024E-3
3.450072546E1,1.444792170E-3
3.451066192E1,-2.089794874E-3
3.452059792E1,5.571921431E-3
3.453053492E1,-1.740862280E-3
3.454047192E1,-3.378100935E-3
3.455040792E1,7.402374018E-3
3.456034492E1,-3.310620412E-4
3.457028192E1,4.462905619E-3
3.458021892E1,3.902395181E-3
3.459015492E1,-5.058937892E-3
3.460009192E1,-1.027374063E-3
3.461002892E1,4.819786772E-3
3.461996592E1,2.314711679E-3
3.462990192E1,7.021994367E-3
3.463983892E1,1.138398070E-3
3.464977592E1,3.801238351E-3
3.465971192E1,-2.551852819E-3
3.466964892E1,3.282553777E-3
3.467958592E1,1.200506464E-4
3.468952292E1,-4.870365188E-3
3.469945892E1,1.761016902E-3
3.470939592E1,6.638946924E-3
3.471933292E1,-2.129099127E-3
3.472926892E1,6.175536811E-3
3.473920592E1,2.692021541E-3
3.474914292E1,-2.259948850E-4
3.475907992E1,-2.867785189E-3
3.476901592E1,7.808444872E-3
3.477895292E1,1.409617513E-3
3.478888992E1,-1.987651326E-3
3.479882592E1,-3.245204687E-5
3.480876292E1,1.321616918E-3
3.481869992E1,1.976157892E-3
3.482863692E1,4.154994898E-4
3.483857292E1,-8.265496138E-3
3.484850992E1,5.780027490E-3
3.485844692E1,3.869577684E-3
3.486838392E1,1.093082149E-3
3.487831992E1,-1.462991629E-3
3.488825692E1,-1.683504749E-3
3.489819392E1,7.512721941E-3
3.490812992E1,6.533258501E-3
3.491806692E1,-5.743793026E-4
3.492800392E1,4.853737168E-4
3.493794092E1,-1.941732410E-3
3.494787692E1,6.388320643E-3
3.495781392E1,1.861059107E-4
3.496775092E1,3.276194930E-3
3.497768692E1,1.602758355E-3
3.498762392E1,7.277225330E-4
3.499756092E1,-9.682623670E-4
3.500749792E1,3.252440616E-3
3.501743392E1,-9.297420066E-3
3.502737092E1,-6.374269053E-3
3.503730792E1,1.124443324E-2
3.504724392E1,1.195443140E-2
3.505718092E1,4.449785929E-3
3.506711792E1,4.290047307E-3
3.507705492E1,-1.162846740E-3
3.508699092E1,5.169815719E-3
3.509692792E1,-1.100720074E-3
3.510686492E1,1.501875613E-3
3.511680092E1,-6.191379111E-3
3.512673792E1,4.106572643E-4
3.513667492E1,-3.908077944E-3
3.514661192E1,-5.693159793E-3
3.515654792E1,1.178104319E-3
3.516648492E1,2.269176487E-3
3.517642192E1,1.396315098E-3
3.518635892E1,4.388518073E-3
3.519629492E1,1.265045106E-3
3.520623192E1,-1.534163207E-4
3.521616892E1,7.150980290E-3
3.522610492E1,-2.044734769E-3
3.523604192E1,-1.166336797E-3
3.524597892E1,9.719497673E-3
3.525591592E1,5.137656033E-3
3.526585192E1,4.858488031E-4
3.527578892E1,-1.679850239E-3
3.528572592E1,8.257054221E-3
3.529566192E1,4.114429839E-4
3.530559892E1,-3.761952370E-4
3.531553592E1,-6.539087445E-3
3.532547292E1,1.283628289E-3
3.533540892E1,8.472304847E-3
3.534534592E1,1.189142765E-2
3.535528292E1,8.337270711E-3
3.536521892E1,-2.907546256E-3
3.537515592E1,2.982280981E-3
3.538509292E1,5.228799507E-3
3.539502992E1,6.367745753E-3
3.540496592E1,2.567110397E-3
3.541490292E1,-5.883029848E-4
3.542483992E1,1.846769974E-3
3.543477592E1,-4.318168759E-4
3.544471292E1,-1.755608227E-3
3.545464992E1,1.878582481E-3
3.546458692E1,7.316785399E-3
3.547452292E1,-3.450222686E-4
3.548445992E1,-8.503496088E-4
3.549439692E1,6.474128533E-3
3.550433342E1,2.226875536E-3
3.551427042E1,5.270607099E-3
3.552420742E1,9.963253476E-3
3.553414442E1,1.303819455E-3
3.554408042E1,-2.863308415E-4
3.555401742E1,-2.531040385E-3
3.556395442E1,6.619833838E-3
3.557389142E1,3.401069529E-3
3.558382742E1,1.165167354E-3
3.559376442E1,6.391701065E-3
3.560370142E1,1.268946296E-2
3.561363742E1,-2.170267180E-3
3.562357442E1,-2.295488957E-3
3.563351142E1,2.121241931E-3
3.564344842E1,-4.331324995E-4
3.565338442E1,4.842773639E-4
3.566332142E1,1.312224828E-3
3.567325842E1,-3.559309803E-3
3.568319442E1,5.571555980E-3
3.569313142E1,-1.803244762E-3
3.570306842E1,-3.193676099E-4
3.571300542E1,-7.888442092E-4
3.572294142E1,1.485558227E-3
3.573287842E1,1.466573048E-3
3.574281542E1,7.993143797E-3
3.575275142E1,1.341155754E-2
3.576268842E1,-1.709707584E-3
3.577262542E1,9.145630002E-3
3.578256242E1,6.474366076E-3
3.579249842E1,2.527312785E-3
3.580243542E1,2.973656338E-3
3.581237242E1,7.792291939E-3
3.582230842E1,1.702745743E-3
3.583224542E1,9.830302410E-3
3.584218242E1,6.142024957E-3
3.585211942E1,-9.395744652E-5
3.586205542E1,5.096762069E-4
3.587199242E1,1.832005754E-4
3.588192942E1,-1.635667216E-3
3.589186542E1,-4.445948694E-3
3.590180242E1,-5.405385420E-4
3.591173942E1,6.185148172E-3
3.592167642E1,5.722870957E-3
3.593161242E1,6.606622785E-3
3.594154942E1,2.724327408E-3
3.595148642E1,1.065156212E-2
3.596142242E1,6.099998094E-3
3.597135942E1,-3.870911580E-3
3.598129642E1,3.851889856E-3
3.599123342E1,2.640566044E-4
3.600116942E1,4.045889508E-3
3.601110642E1,-4.603531156E-3
3.602104342E1,5.000063740E-3
3.603097942E1,-1.692220755E-3
3.604091642E1,-4.063906241E-3
3.605085342E1,-1.001306444E-2
3.606079042E1,8.024554309E-3
3.607072642E1,1.447397836E-2
3.608066342E1,6.295331642E-3
3.609060042E1,-1.652222145E-3
3.610053642E1,5.730216522E-3
3.611047342E1,4.478802737E-3
3.612041042E1,-7.123553194E-4
3.613034742E1,-3.603090830E-3
3.614028342E1,2.588964365E-3
3.615022042E1,1.198878380E-2
3.616015742E1,5.771037396E-3
3.617009342E1,-3.152964860E-3
3.618003042E1,-1.649079267E-3
3.618996742E1,5.531868003E-3
3.619990442E1,1.732292455E-3
3.620984042E1,3.413896859E-3
3.621977742E1,2.535206527E-3
3.622971442E1,-3.194955178E-4
3.623965042E1,7.262095660E-3
3.624958742E1,-3.273253050E-3
3.625952442E1,7.977685221E-3
3.626946142E1,1.715244167E-4
3.627939742E1,-5.847745556E-3
3.628933442E1,-1.286533624E-3
3.629927142E1,-4.009362683E-4
3.630920742E1,-1.338573843E-3
3.631914442E1,-7.074820306E-3
3.632908142E1,-5.130822100E-3
3.633901842E1,-7.297873311E-4
3.634895442E1,1.821060497E-3
3.635889142E1,-6.043810006E-3
3.636882842E1,-3.668817189E-3
3.637876442E1,-5.940405652E-4
3.638870142E1,1.139620503E-2
3.639863842E1,5.289902911E-3
3.640857542E1,-3.475256078E-4
3.641851142E1,-7.244060654E-3
3.642844842E1,2.747497000E-3
3.643838542E1,-4.047570582E-3
3.644832142E1,2.536741421E-3
3.645825842E1,8.534157425E-3
3.646819542E1,4.961070120E-3
3.647813242E1,8.926633503E-3
3.648806842E1,3.934682775E-3
3.649800542E1,-2.540633474E-3
3.650794242E1,1.216367036E-3
3.651787842E1,-2.081864588E-3
3.652781542E1,3.110937998E-3
3.653775242E1,4.693486914E-3
3.654768942E1,-3.133504596E-3
3.655762542E1,1.256420463E-4
3.656756242E1,4.484686498E-3
3.657749942E1,3.715814184E-3
3.658743542E1,6.334179081E-4
3.659737242E1,3.322643749E-3
3.660730942E1,4.360561073E-4
3.661724542E1,5.455086753E-4
3.662718242E1,-1.021746118E-3
3.663711942E1,-6.370815542E-3
3.664705642E1,3.630956467E-3
3.665699242E1,2.656901702E-3
3.666692942E1,5.591546148E-3
3.667686642E1,-9.055308793E-3
3.668680242E1,-5.182094872E-5
3.669673942E1,-5.580363348E-3
3.670667642E1,-5.781489294E-3
3.671661342E1,6.383752506E-3
3.672654942E1,9.607084952E-3
3.673648642E1,4.524100386E-3
3.674642342E1,8.210934307E-3
3.675635942E1,-3.871660754E-3
3.676629642E1,2.204784025E-3
3.677623342E1,-2.413346898E-3
3.678617042E1,7.319599371E-3
3.679610642E1,1.314965710E-3
3.680604342E1,-3.030136786E-4
3.681598042E1,8.926871046E-4
3.682591642E1,9.473037533E-4
3.683585342E1,5.378159322E-3
3.684579042E1,-1.391728688E-3
3.685572742E1,2.068909351E-3
3.686566342E1,3.743880820E-3
3.687560042E1,1.419393327E-3
3.688553742E1,6.665862389E-3
3.689547342E1,-6.083333530E-3
3.690541042E1,-7.354627848E-3
3.691534742E1,-2.800268121E-3
3.692528442E1,-7.304816879E-4
3.693522042E1,4.266420901E-3
3.694515742E1,1.176368427E-3
3.695509442E1,5.358918328E-3
3.696503042E1,8.051597681E-3
3.697496742E1,-1.019809227E-3
3.698490442E1,-1.907654107E-5
3.699484142E1,-3.345338255E-4
3.700477742E1,-9.412683304E-3
3.701471442E1,-1.653665677E-4
3.702465142E1,2.137120776E-3
3.703458742E1,4.221360795E-3
3.704452442E1,-2.659423314E-3
3.705446142E1,7.676279526E-3
3.706439842E1,4.680677857E-3
3.707433442E1,3.578843158E-3
3.708427142E1,5.216410719E-3
3.709420842E1,-3.358457945E-3
3.710414442E1,-9.507938102E-4
3.711408142E1,3.149748892E-3
3.712401842E1,-1.353904512E-3
3.713395442E1,7.014648803E-4
3.714389142E1,-3.361345008E-3
3.715382842E1,2.957320679E-3
3.716376542E1,-5.512225013E-3
3.717370142E1,-6.777635571E-3
3.718363842E1,6.369865369E-3
3.719357542E1,2.603417952E-3
3.720351142E1,3.015865926E-3
3.721344842E1,1.737207770E-3
3.722338542E1,-9.750963002E-3
3.723332242E1,5.240384303E-3
3.724325842E1,3.064507451E-3
3.725319542E1,-2.056959104E-3
3.726313242E1,3.051826302E-3
3.727306842E1,-2.174488138E-3
3.728300542E1,-5.314095765E-3
3.729294242E1,-1.140462868E-3
3.730287942E1,1.052930050E-2
3.731281542E1,7.208337821E-4
3.732275242E1,8.147729561E-3
3.733268942E1,1.442014743E-3
3.734262542E1,-2.053286321E-4
3.735256242E1,6.528964452E-3
3.736249942E1,4.593773615E-3
3.737243642E1,6.564413197E-3
3.738237242E1,9.002062585E-3
3.739230942E1,-2.783713192E-3
3.740224642E1,5.814233702E-3
3.741218242E1,2.767450623E-3
3.742211942E1,-3.514158335E-3
3.743205642E1,7.369739246E-3
3.744199342E1,7.803949825E-3
3.745192942E1,2.736990284E-3
3.746186642E1,5.755505729E-3
3.747180342E1,8.442465775E-3
3.748173942E1,8.817948382E-3
3.749167642E1,7.475592121E-3
3.750161342E1,4.424368814E-3
3.751154892E1,-3.345630616E-3
3.752148592E1,6.501263268E-3
3.753142292E1,1.289888464E-2
3.754135992E1,4.586409777E-5
3.755129592E1,8.760444671E-3
3.756123292E1,6.197957229E-3
3.757116992E1,1.858537495E-3
3.758110592E1,1.256584916E-3
3.759104292E1,-9.422057122E-4
3.760097992E1,5.176393837E-3
3.761091692E1,-2.818723395E-3
3.762085292E1,-2.566964217E-3
3.763078992E1,4.819878135E-3
3.764072692E1,-1.953883655E-4
3.765066292E1,-3.766447417E-3
3.766059992E1,-8.613679558E-5
3.767053692E1,-1.455371976E-3
3.768047392E1,3.085265066E-3
3.769040992E1,3.682777416E-3
3.770034692E1,1.367481016E-3
3.771028392E1,6.154084839E-3
3.772021992E1,-2.267586775E-3
3.773015692E1,3.773993980E-3
3.774009392E1,2.145800237E-3
3.775002992E1,7.260085680E-3
3.775996692E1,6.341396738E-3
3.776990392E1,-3.918767385E-3
3.777984092E1,-2.346944455E-3
3.778977692E1,-4.564665444E-4
3.779971392E1,-3.099207021E-4
3.780965092E1,8.260836639E-3
3.781958692E1,4.128956515E-3
3.782952392E1,-3.352190461E-3
3.783946092E1,5.652868822E-3
3.784939792E1,8.557692468E-3
3.785933392E1,1.726883780E-3
3.786927092E1,6.008744985E-4
3.787920792E1,1.075851135E-3
3.788914392E1,5.193149764E-3
3.789908092E1,8.062524665E-3
3.790901792E1,1.118698435E-2
3.791895492E1,2.927262336E-3
3.792889092E1,8.773838449E-3
3.793882792E1,1.074488003E-2
3.794876492E1,3.779055476E-3
3.795870092E1,-3.704046663E-3
3.796863792E1,-6.926483754E-3
3.797857492E1,6.310991216E-3
3.798851192E1,3.143956494E-3
3.799844792E1,5.290451087E-3
3.800838492E1,-1.792007145E-3
3.801832192E1,-1.009960324E-3
3.802825792E1,5.127514768E-3
3.803819492E1,8.701826334E-3
3.804813192E1,1.106302338E-2
3.805806792E1,1.464380343E-3
3.806800492E1,3.727325890E-3
3.807794192E1,2.902941573E-3
3.808787892E1,8.150890712E-3
3.809781492E1,8.256633952E-4
3.810775192E1,-6.950329430E-4
3.811768892E1,3.481688015E-3
3.812762492E1,3.451081496E-3
3.813756192E1,-3.627100959E-3
3.814749892E1,1.346705128E-3
3.815743592E1,4.692829102E-3
3.816737192E1,3.988897428E-4
3.817730892E1,2.572829705E-3
3.818724592E1,7.441404182E-3
3.819718192E1,1.340130664E-2
3.820711892E1,5.682013538E-3
3.821705592E1,-2.415813692E-4
3.822699192E1,-5.443885680E-3
3.823692892E1,6.954203211E-3
3.824686592E1,1.650102530E-2
3.825680292E1,4.859584384E-3
3.826673892E1,2.479365617E-3
3.827667592E1,2.295982316E-3
3.828661292E1,-2.319279816E-3
3.829654892E1,3.492103368E-3
3.830648592E1,1.334553882E-3
3.831642292E1,-9.251391515E-4
3.832635992E1,2.721531708E-3
3.833629592E1,1.139128972E-3
3.834623292E1,9.788787179E-4
3.835616992E1,5.776921157E-3
3.836610592E1,1.348150486E-2
3.837604292E1,-1.190785468E-3
3.838597992E1,2.120346576E-4
3.839591592E1,-5.874441750E-4
3.840585292E1,1.184316985E-3
3.841578992E1,-4.338469561E-3
3.842572692E1,-1.417584345E-3
3.843566292E1,1.582402736E-3
3.844559992E1,-4.787352998E-3
3.845553692E1,5.628347062E-3
3.846547292E1,1.734850612E-3
3.847540992E1,-3.754424080E-3
3.848534692E1,-7.939970680E-4
3.849528292E1,3.655277230E-3
3.850521992E1,4.510249794E-3
3.851515967E1,3.903436717E-3
3.852509667E1,-1.518339179E-3
3.853503267E1,1.957775708E-3
3.854496967E1,-1.749724466E-3
3.855490667E1,-8.419625089E-4
3.856484267E1,5.798738580E-3
3.857477967E1,1.032015290E-3
3.858471667E1,-2.566726673E-3
3.859465367E1,-9.115809202E-4
3.860458967E1,1.032161471E-3
3.861452667E1,5.562328342E-3
3.862446367E1,-2.849859819E-3
3.863439967E1,4.367321916E-4
3.864433667E1,-1.364027504E-3
3.865427367E1,6.396470200E-3
3.866421067E1,-4.450480286E-3
3.867414667E1,5.709623359E-4
3.868408367E1,1.096352935E-5
3.869402067E1,-4.460310917E-3
3.870395667E1,3.258635011E-3
3.871389367E1,-3.603036013E-3
3.872383067E1,4.180667829E-3
3.873376667E1,4.519733246E-3
3.874370367E1,5.057713632E-3
3.875364067E1,-4.690800849E-3
3.876357767E1,2.921561301E-3
3.877351367E1,7.283712085E-3
3.878345067E1,3.493729625E-3
3.879338767E1,7.122073118E-3
3.880332367E1,1.107828096E-3
3.881326067E1,-1.378196038E-2
3.882319767E1,-3.522947431E-5
3.883313467E1,5.321349967E-3
3.884307067E1,3.320304863E-3
3.885300767E1,5.451395698E-3
3.886294467E1,-8.035718836E-4
3.887288067E1,2.437594570E-3
3.888281767E1,4.228286091E-3
3.889275467E1,3.481834196E-3
3.890269067E1,5.810122378E-3
3.891262767E1,6.356361955E-3
3.892256467E1,1.478559840E-3
3.893250067E1,2.528591864E-3
3.894243767E1,1.090452729E-2
3.895237467E1,7.660857495E-3
3.896231167E1,5.011410993E-3
3.897224767E1,-5.534681976E-3
3.898218467E1,1.841068938E-3
3.899212167E1,-3.902870268E-3
3.900205767E1,-2.793836184E-3
3.901199467E1,8.425362669E-3
3.902193167E1,9.837392159E-4
3.903186867E1,-8.561767247E-3
3.904180467E1,-5.878004897E-3
3.905174167E1,-9.103146326E-3
3.906167867E1,-4.614768773E-3
3.907161467E1,2.381278574E-3
3.908155167E1,-1.532683130E-3
3.909148867E1,9.423884377E-4
3.910142567E1,-5.662023369E-3
3.911136167E1,6.602420099E-4
3.912129867E1,3.088700306E-3
3.913123567E1,8.224857990E-3
3.914117167E1,1.084236408E-2
3.915110867E1,1.287520342E-3
3.916104567E1,-4.430161212E-3
3.917098167E1,-1.920444891E-4
3.918091867E1,1.235536767E-2
3.919085567E1,2.677202504E-3
3.920079267E1,1.051645489E-2
3.921072867E1,2.364778463E-3
3.922066567E1,-4.325331599E-3
3.923060267E1,3.232651446E-3
3.924053867E1,3.391202353E-4
3.925047567E1,1.385187116E-3
3.926041267E1,2.148303576E-4
3.927034867E1,-1.360299904E-3
3.928028567E1,-4.454628155E-3
3.929022267E1,-5.148290657E-4
3.930015967E1,1.310233120E-3
3.931009567E1,2.677969951E-3
3.932003267E1,-4.220118262E-3
3.932996967E1,-5.448874086E-5
3.933990567E1,-1.304623447E-3
3.934984267E1,4.076240212E-3
3.935977967E1,1.969561502E-3
3.936971567E1,1.813386027E-3
3.937965267E1,-5.965713132E-3
3.938958967E1,-6.617275681E-3
3.939952667E1,4.552824832E-3
3.940946267E1,-1.057889219E-3
3.941939967E1,5.540492646E-3
3.942933667E1,4.041887820E-4
3.943927267E1,-2.946539875E-3
3.944920967E1,7.005987614E-3
3.945914667E1,-7.352325507E-4
3.946908267E1,-1.816072091E-3
3.947901967E1,1.058382578E-3
3.948895667E1,1.365745123E-3
3.949889367E1,2.708174475E-4
3.950882654E1,6.037926245E-3
3.951876354E1,-1.730410382E-5
3.952870054E1,-1.464910246E-3
3.953863654E1,-9.491858259E-4
3.954857354E1,-2.926001530E-3
3.955851054E1,-3.688533269E-3
3.956844654E1,-5.517926048E-3
3.957838354E1,-2.232028395E-3
3.958832054E1,3.986668177E-3
3.959825754E1,-8.069596142E-3
3.960819354E1,-5.209905691E-3
3.961813054E1,1.984471902E-3
3.962806754E1,-1.295468900E-3
3.963800354E1,-2.714441959E-3
3.964794054E1,3.889677487E-4
3.965787754E1,1.168072689E-3
3.966781354E1,4.077519290E-4
3.967775054E1,-4.315939508E-3
3.968768754E1,2.481960319E-4
3.969762454E1,5.245135166E-4
3.970756054E1,1.572170109E-4
3.971749754E1,-5.096360072E-3
3.972743454E1,-6.847089529E-4
3.973737054E1,4.535191823E-3
3.974730754E1,-4.342471249E-3
3.975724454E1,-5.159911998E-3
3.976718054E1,-5.293338150E-3
3.977711754E1,1.234511677E-3
3.978705454E1,-7.246819809E-3
3.979699154E1,-8.251773454E-3
3.980692754E1,1.533194762E-3
3.981686454E1,3.431639504E-3
3.982680154E1,2.059096992E-3
3.983673754E1,3.674591314E-3
3.984667454E1,5.318261907E-3
3.985661154E1,-1.711882018E-3
3.986654854E1,2.103353105E-4
3.987648454E1,-3.464256003E-3
3.988642154E1,-2.510666493E-3
3.989635854E1,5.352797024E-3
3.990629454E1,-7.066689022E-3
3.991623154E1,-1.385790110E-4
3.992616854E1,-7.862074804E-3
3.993610454E1,-8.187563717E-4
3.994604154E1,1.448793858E-3
3.995597854E1,4.512734860E-3
3.996591454E1,-1.490820721E-3
3.997585154E1,-4.478492104E-3
3.998578854E1,-9.550860319E-3
3.999572554E1,-3.625438157E-3
4.000566154E1,9.846711159E-4
4.001559854E1,-3.096868135E-3
4.002553554E1,5.048613902E-3
4.003547154E1,-2.256659791E-4
4.004540854E1,-6.778019294E-4
4.005534554E1,3.765296247E-3
4.006528154E1,-6.151910406E-3
4.007521854E1,9.706377983E-5
4.008515554E1,4.959114958E-3
4.009509254E1,-2.689828835E-3
4.010502854E1,-2.137139048E-3
4.011496554E1,-1.500322446E-3
4.012490254E1,4.428644590E-3
4.013483854E1,-5.644719265E-3
4.014477554E1,1.570470762E-3
4.015471254E1,-3.861958031E-3
4.016464854E1,-6.159895509E-3
4.017458554E1,-3.273910861E-3
4.018452254E1,5.724424124E-4
4.019445954E1,-1.125718748E-2
4.020439554E1,-1.395127382E-3
4.021433254E1,-2.539683301E-3
4.022426954E1,-3.498937301E-3
4.023420554E1,2.278952301E-4
4.024414254E1,-1.234127954E-3
4.025407954E1,-6.345508061E-3
4.026401554E1,-1.093959231E-3
4.027395254E1,-6.073776986E-3
4.028388954E1,-5.033539049E-4
4.029382654E1,-3.945993483E-3
4.030376254E1,2.509277780E-3
4.031369954E1,-6.613840442E-3
4.032363654E1,-5.441875700E-3
4.033357254E1,-3.612080924E-3
4.034350954E1,-2.356701996E-3
4.035344654E1,-2.836575676E-3
