Time (s),Linear Acceleration x (m/s^2)
3.004816663E-2,-3.232413903E-3
3.998616664E-2,5.565818399E-5
4.992416664E-2,1.830324680E-3
5.986316665E-2,1.969926953E-3
6.980216666E-2,3.604077548E-3
7.974016666E-2,-4.305524155E-3
8.967916667E-2,-2.360849865E-3
9.961716668E-2,-2.427435033E-3
1.095561666E-1,-4.685812443E-3
1.194951666E-1,-5.845900029E-3
1.294331666E-1,1.474119611E-3
1.393721666E-1,-6.223264709E-4
1.493101666E-1,4.182257541E-3
1.592491666E-1,-3.314092197E-3
1.691881666E-1,-8.299391717E-5
1.791261666E-1,6.676021926E-3
1.890651666E-1,-1.625343226E-3
1.990041666E-1,-3.016213104E-3
2.089421666E-1,1.978149600E-3
2.188811667E-1,-1.448501498E-3
2.288191667E-1,-3.243487068E-3
2.387581667E-1,-1.497179568E-3
2.486971667E-1,3.679396994E-3
2.586351667E-1,1.680599414E-3
2.685741666E-1,-5.085908175E-3
2.785127083E-1,-3.399936631E-3
2.884507083E-1,7.313295342E-3
2.983897083E-1,2.624486201E-3
3.083277083E-1,1.970000044E-3
3.182667083E-1,-1.017415524E-2
3.282057083E-1,-7.013406269E-3
3.381437083E-1,4.204842411E-3
3.480827083E-1,6.113483235E-3
3.580207083E-1,8.073506467E-3
3.679597083E-1,-2.812328003E-3
3.778987083E-1,1.915584393E-3
3.878367083E-1,4.664616287E-3
3.977757083E-1,7.320713997E-4
4.077147082E-1,-1.092917696E-3
4.176527082E-1,-5.257304683E-3
4.275917083E-1,-1.819580421E-4
4.375297083E-1,3.717403896E-3
4.474687083E-1,-9.358687922E-3
4.574077083E-1,1.138672158E-3
4.673457083E-1,7.621443607E-3
4.772847083E-1,6.333009638E-3
4.872227083E-1,8.280315176E-3
4.971617083E-1,-4.827607423E-5
5.071007083E-1,-1.538914070E-4
5.170387083E-1,7.084998116E-4
5.269777083E-1,-1.011385582E-3
5.369167083E-1,8.303046227E-5
5.468547083E-1,1.303454004E-3
5.567937082E-1,6.411252692E-3
5.667317082E-1,6.440452226E-3
5.766707083E-1,1.031814292E-3
5.866097083E-1,-1.028671414E-3
5.965477083E-1,-3.843119033E-3
6.064867083E-1,-1.041429307E-2
6.164257083E-1,9.557639435E-4
6.263637083E-1,8.873807564E-3
6.363027083E-1,3.083967716E-3
6.462407083E-1,9.507207200E-3
6.561797083E-1,-2.424547970E-3
6.661187083E-1,1.246852957E-2
6.760567083E-1,-2.374042645E-3
6.859957083E-1,-9.033217281E-4
6.959337083E-1,-2.181742340E-5
7.058727083E-1,1.675410010E-3
7.158117082E-1,7.619250901E-3
7.257497082E-1,7.061426528E-3
7.356887083E-1,-6.083954796E-3
7.456277083E-1,-4.441252649E-3
7.555657083E-1,8.866535090E-3
7.655047083E-1,5.449020267E-3
7.754427083E-1,-1.582037285E-4
7.853817083E-1,5.103522912E-4
7.953207083E-1,-3.164220750E-3
8.052587083E-1,-5.143320523E-3
8.151977083E-1,5.505007356E-3
8.251357083E-1,5.832597613E-3
8.350747083E-1,9.266959727E-3
8.450137083E-1,3.007259555E-3
8.549517083E-1,1.920627616E-3
8.648907082E-1,8.726713546E-3
8.748297082E-1,5.500950851E-3
8.847677083E-1,5.924179628E-3
8.947067083E-1,1.033970453E-2
9.046447083E-1,1.012997221E-2
9.145837083E-1,7.153410539E-3
9.245227083E-1,-3.266620114E-3
9.344607083E-1,2.723633051E-3
9.443997083E-1,8.681653440E-4
9.543377083E-1,4.620762169E-3
9.642767083E-1,8.922193274E-3
9.742157083E-1,1.017590940E-2
9.841537083E-1,2.181669250E-3
9.940927083E-1,7.833332084E-3
1.004031708E0,9.941728413E-4
1.013969708E0,9.706633799E-3
1.023908708E0,-7.927545346E-3
1.033846708E0,-3.975010291E-4
1.043785708E0,-6.419621520E-3
1.053724708E0,5.083934739E-3
1.063662708E0,6.652779244E-3
1.073601708E0,8.776378334E-3
1.083539708E0,2.377404794E-3
1.093478708E0,2.588050738E-3
1.103417708E0,-4.239487164E-3
1.113355708E0,7.881717794E-3
1.123294708E0,-1.497873925E-3
1.133233708E0,9.032851830E-4
1.143171708E0,3.224739432E-3
1.153110708E0,-4.835281894E-4
1.163048708E0,5.584127493E-3
1.172987708E0,3.487206325E-3
1.182926708E0,1.069780994E-2
1.192864708E0,1.007511802E-2
1.202803708E0,-4.574788436E-3
1.212742708E0,7.389930412E-3
1.222680708E0,1.084716976E-2
1.232619708E0,7.048453018E-4
1.242557708E0,4.548512511E-3
1.252496708E0,4.104708843E-3
1.262435708E0,9.265680648E-3
1.272373917E0,1.332993407E-2
1.282312917E0,9.737514406E-3
1.292250917E0,8.171154968E-3
1.302189917E0,2.291487269E-3
1.312128917E0,2.104595639E-3
1.322066917E0,-1.092490118E-2
1.332005917E0,-4.709566757E-4
1.341944917E0,1.992000192E-3
1.351882917E0,-9.326308966E-5
1.361821917E0,-7.318886742E-3
1.371759917E0,7.055835128E-3
1.381698917E0,1.199899815E-2
1.391637917E0,5.035804845E-3
1.401575917E0,7.348159365E-3
1.411514917E0,1.020894617E-2
1.421453917E0,1.599396206E-3
1.431391917E0,1.740496829E-3
1.441330917E0,3.416528106E-3
1.451268917E0,7.890890613E-3
1.461207917E0,-1.665798649E-3
1.471146917E0,8.021173887E-3
1.481084917E0,3.886717334E-3
1.491023917E0,5.192254409E-3
1.500961917E0,4.060087278E-3
1.510900917E0,6.303079203E-3
1.520839917E0,2.119177133E-3
1.530777917E0,-8.845010027E-4
1.540716917E0,6.681576781E-3
1.550655917E0,1.115721837E-2
1.560593917E0,5.042273328E-3
1.570532917E0,3.361783549E-3
1.580470917E0,2.645207271E-3
1.590409917E0,6.125287302E-3
1.600348917E0,9.001788497E-4
1.610286917E0,5.268414393E-3
1.620225917E0,5.851856880E-3
1.630163917E0,3.602177203E-3
1.640102917E0,6.395721026E-3
1.650041917E0,6.851548031E-3
1.659979917E0,5.721756332E-3
1.669918917E0,3.329002596E-3
1.679857917E0,1.341234326E-2
1.689795917E0,1.185979787E-2
1.699734917E0,1.070175681E-2
1.709672917E0,2.654307000E-3
1.719611917E0,1.396925401E-2
1.729550917E0,4.525671825E-3
1.739488917E0,8.496004343E-3
1.749427917E0,8.377086595E-3
1.759366917E0,5.495651811E-4
1.769304917E0,1.735819057E-3
1.779243917E0,6.875850521E-3
1.789181917E0,2.187333740E-3
1.799120917E0,2.478598170E-3
1.809059917E0,4.071050808E-3
1.818997917E0,5.615556277E-3
1.828936917E0,8.042516224E-3
1.838875917E0,5.376295522E-3
1.848813917E0,3.213812448E-3
1.858752917E0,-4.132665843E-3
1.868690917E0,1.638309427E-2
1.878629917E0,-2.165625952E-3
1.888568917E0,2.509990409E-3
1.898506917E0,9.045532979E-3
1.908445917E0,1.655032463E-2
1.918383917E0,2.169243917E-3
1.928322917E0,6.328222230E-3
1.938261917E0,7.909674793E-3
1.948199917E0,9.226394668E-3
1.958138917E0,4.882498160E-3
1.968077917E0,2.235171273E-3
1.978015917E0,6.965386011E-3
1.987954917E0,1.202874586E-2
1.997892917E0,-1.571512297E-3
2.007831917E0,6.745859608E-4
2.017770917E0,3.974352479E-3
2.027708917E0,1.023138486E-2
2.037647917E0,6.790408082E-3
2.047586917E0,4.243689850E-3
2.057524917E0,7.479063906E-3
2.067463917E0,4.386288822E-3
2.077401917E0,6.017917804E-3
2.087340917E0,1.436134636E-2
2.097279917E0,4.196363948E-3
2.107217917E0,9.347870573E-4
2.117156917E0,4.184194431E-3
2.127095917E0,6.332680732E-3
2.137033917E0,4.089286812E-3
2.146972917E0,1.962252483E-3
2.156910917E0,3.451501764E-3
2.166849917E0,4.438950308E-3
2.176788917E0,1.234537259E-2
2.186726917E0,8.549725637E-3
2.196665917E0,-1.265922189E-4
2.206603917E0,7.403781004E-3
2.216542917E0,7.693364359E-3
2.226481917E0,1.182964817E-4
2.236419917E0,1.528268483E-2
2.246358917E0,1.709703930E-2
2.256297917E0,5.436010212E-3
2.266235917E0,2.546937503E-3
2.276174417E0,9.081200995E-3
2.286112417E0,1.282842569E-3
2.296051417E0,6.794391498E-3
2.305990417E0,2.843172066E-3
2.315928417E0,2.641114220E-4
2.325867417E0,3.936491758E-3
2.335806417E0,3.515382595E-3
2.345744417E0,1.391973540E-2
2.355683417E0,2.021455541E-3
2.365621417E0,1.091017351E-3
2.375560417E0,-6.221072003E-3
2.385499417E0,4.432262555E-3
2.395437417E0,2.270071842E-3
2.405376417E0,8.359654583E-3
2.415315417E0,4.663154483E-3
2.425253417E0,6.718121879E-3
2.435192417E0,2.686722502E-3
2.445130417E0,7.164337523E-3
2.455069417E0,8.076503165E-3
2.465008417E0,7.975967601E-4
2.474946417E0,2.708137929E-3
2.484885417E0,6.591383480E-3
2.494824417E0,7.078931630E-3
2.504762417E0,5.002731532E-3
2.514701417E0,7.450485639E-3
2.524639417E0,2.035306133E-3
2.534578417E0,2.763942294E-3
2.544517417E0,1.607812542E-2
2.554455417E0,6.469213217E-3
2.564394417E0,2.909318693E-3
2.574333417E0,9.735358246E-3
2.584271417E0,7.238414437E-3
2.594210417E0,2.098382972E-3
2.604148417E0,2.491279319E-4
2.614087417E0,-1.781829335E-3
2.624026417E0,5.827773660E-3
2.633964417E0,6.439977139E-3
2.643903417E0,1.131790716E-2
2.653841417E0,5.988206640E-3
2.663780417E0,-2.104157098E-3
2.673719417E0,4.145054631E-3
2.683657417E0,1.883022711E-3
2.693596417E0,4.247819446E-3
2.703535417E0,9.967711978E-3
2.713473417E0,5.852478147E-3
2.723412417E0,-1.964299008E-4
2.733350417E0,1.038012341E-2
2.743289417E0,2.450823896E-3
2.753228417E0,4.296972603E-3
2.763166417E0,-1.212420166E-3
2.773105417E0,-9.620131552E-4
2.783044417E0,-4.249573611E-3
2.792982417E0,-5.580801889E-3
2.802921417E0,3.121316805E-4
2.812859417E0,5.999206714E-3
2.822798417E0,1.430382438E-2
2.832737417E0,4.347075932E-3
2.842675417E0,-1.197400130E-3
2.852614417E0,4.629496448E-3
2.862553417E0,5.266989134E-3
2.872491417E0,7.720773183E-3
2.882430417E0,4.905083030E-4
2.892368417E0,2.648679055E-3
2.902307417E0,1.246425379E-2
2.912246417E0,7.223467492E-3
2.922184417E0,8.116885498E-3
2.932123417E0,1.273669749E-3
2.942062417E0,8.169035353E-3
2.952000417E0,8.562845327E-3
2.961939417E0,3.590153866E-3
2.971877417E0,2.969069928E-3
2.981816417E0,1.097368889E-2
2.991755417E0,1.478293061E-2
3.001693417E0,8.582068048E-3
3.011632417E0,1.374607310E-3
3.021571417E0,1.004427396E-2
3.031509417E0,-4.774799757E-3
3.041448417E0,6.617586315E-3
3.051386417E0,-3.784500696E-3
3.061325417E0,-2.190549709E-3
3.071264417E0,8.939990737E-3
3.081202417E0,1.412943117E-3
3.091141417E0,2.850152180E-3
3.101080417E0,8.296468109E-4
3.111018417E0,4.311371371E-3
3.120957417E0,6.449332684E-3
3.130895417E0,6.624858789E-3
3.140834417E0,7.907920629E-3
3.150773417E0,1.107433408E-2
3.160711417E0,2.305228226E-3
3.170650417E0,5.869581252E-3
3.180589417E0,1.015094910E-2
3.190527417E0,1.100705456E-2
3.200466417E0,6.839780509E-4
3.210404417E0,1.454421803E-3
3.220343417E0,8.837445192E-3
3.230282417E0,4.987638406E-3
3.240220417E0,1.131352175E-2
3.250159417E0,1.354763322E-2
3.260098417E0,5.094459727E-3
3.270036417E0,1.266287640E-3
3.279975583E0,7.368259169E-3
3.289913583E0,1.031046845E-3
3.299852583E0,6.876435243E-3
3.309791583E0,4.241570234E-3
3.319729583E0,6.221437454E-3
3.329668583E0,2.654343545E-3
3.339607583E0,9.059858657E-3
3.349545583E0,8.852319047E-3
3.359484583E0,1.032779083E-2
3.369422583E0,8.248155490E-3
3.379361583E0,7.608835548E-3
3.389300583E0,-4.186387137E-3
3.399238583E0,5.722158328E-3
3.409177583E0,8.746338263E-4
3.419116583E0,1.009551018E-2
3.429054583E0,1.522943862E-3
3.438993583E0,3.851634040E-3
3.448931583E0,-4.661692679E-4
3.458870583E0,5.295421220E-3
3.468809583E0,9.504868314E-3
3.478747583E0,5.399026573E-3
3.488686583E0,8.088891953E-3
3.498625583E0,2.843062431E-3
3.508563583E0,-7.177091762E-4
3.518502583E0,-2.443478331E-3
3.528440583E0,-1.055422425E-4
3.538379583E0,7.147636414E-3
3.548318583E0,6.063745357E-3
3.558256583E0,4.902305603E-3
3.568195583E0,7.113832198E-3
3.578134583E0,-2.943488359E-3
3.588072583E0,-1.502588242E-3
3.598011583E0,-3.856969625E-4
3.607949583E0,7.086350285E-3
3.617888583E0,6.375182681E-3
3.627827583E0,3.708888888E-3
3.637765583E0,-6.094443239E-3
3.647704583E0,7.488857992E-3
3.657643583E0,4.389248975E-3
3.667581583E0,7.359890342E-3
3.677520583E0,-1.517242827E-3
3.687459583E0,6.499143653E-3
3.697397583E0,-3.829926252E-4
3.707336583E0,-3.320341408E-3
3.717274583E0,3.932910338E-3
3.727213583E0,-5.343733840E-3
3.737152583E0,-2.413182445E-3
3.747090583E0,6.983512379E-3
3.757029583E0,2.450604625E-3
3.766968583E0,-3.253061883E-3
3.776906583E0,3.392846882E-4
3.786845583E0,7.611247525E-4
3.796783583E0,8.234451078E-3
3.806722583E0,4.033994079E-3
3.816661583E0,8.421233073E-3
3.826599583E0,7.831358649E-3
3.836538583E0,5.594140850E-3
3.846477583E0,5.045233481E-3
3.856415583E0,6.985303089E-3
3.866354583E0,-5.205447190E-3
3.876292583E0,1.665689014E-3
3.886231583E0,-1.675154194E-3
3.896170583E0,2.363006026E-3
3.906108583E0,4.489930719E-3
3.916047583E0,5.420259275E-3
3.925986583E0,6.129709259E-4
3.935924583E0,1.693280563E-3
3.945863583E0,3.729134873E-3
3.955801583E0,-4.795667008E-3
3.965740583E0,1.036411665E-2
3.975679583E0,7.338548005E-3
3.985617583E0,1.024161749E-2
3.995556583E0,6.288278438E-3
4.005495583E0,9.820033237E-4
4.015433583E0,1.011129767E-3
4.025372583E0,-2.027229667E-3
4.035310583E0,2.117496058E-3
4.045249583E0,2.358218618E-3
4.055188583E0,-2.076857910E-4
4.065126583E0,2.580851354E-3
4.075065583E0,1.684034653E-3
4.085004583E0,4.658147804E-3
4.094942583E0,4.197533391E-3
4.104881583E0,-2.066844553E-3
4.114819583E0,1.788443998E-3
4.124758583E0,6.079605930E-3
4.134697583E0,1.077155795E-2
4.144635583E0,3.601629026E-3
4.154574583E0,3.397378474E-3
4.164513583E0,-3.235337511E-4
4.174451583E0,2.493837476E-4
4.184390583E0,6.275853105E-3
4.194329583E0,3.430707604E-3
4.204267583E0,-1.077203304E-3
4.214206583E0,2.389428131E-3
4.224144583E0,3.689227626E-4
4.234083583E0,4.172171094E-3
4.244022583E0,7.678344324E-3
4.253960583E0,1.289164871E-3
4.263899583E0,6.988884509E-3
4.273839417E0,5.699610002E-3
4.283777417E0,2.597406283E-3
4.293716417E0,-3.263586871E-3
4.303654417E0,3.639526293E-3
4.313593417E0,-7.106157728E-3
4.323532417E0,2.520515397E-3
4.333470417E0,9.372501969E-3
4.343409417E0,4.793839753E-3
4.353348417E0,1.050503455E-2
4.363286417E0,1.307046387E-2
4.373225417E0,9.730570838E-3
4.383163417E0,6.324786991E-3
4.393102417E0,6.376534849E-3
4.403041417E0,6.266059019E-3
4.412979417E0,4.826474525E-3
4.422918417E0,4.807726890E-3
4.432857417E0,4.081429616E-3
4.442795417E0,3.805879578E-3
4.452734417E0,6.500532366E-3
4.462672417E0,3.856494538E-3
4.472611417E0,4.588675573E-3
4.482550417E0,-1.828278154E-3
4.492488417E0,-1.478907019E-3
4.502427417E0,4.706898965E-3
4.512366417E0,2.960043289E-3
4.522304417E0,4.650107883E-3
4.532243417E0,6.177400611E-3
4.542182417E0,7.714816332E-3
4.552120417E0,1.237862863E-2
4.562059417E0,1.280174777E-3
4.571997417E0,-8.226703517E-3
4.581936417E0,9.290933311E-3
4.591875417E0,2.616775185E-3
4.601813417E0,1.861095652E-3
4.611752417E0,3.155669197E-3
4.621691417E0,2.339909524E-3
4.631629417E0,6.863827184E-3
4.641568417E0,3.463013470E-4
4.651506417E0,3.940767534E-3
4.661445417E0,9.812029861E-3
4.671384417E0,3.703151308E-3
4.681322417E0,-9.418402612E-4
4.691261417E0,3.921471722E-3
4.701200417E0,-8.405007049E-4
4.711138417E0,1.605024152E-3
4.721077417E0,3.959844075E-3
4.731016417E0,3.364341706E-3
4.740954417E0,-2.208237536E-3
4.750893417E0,3.240417279E-3
4.760831417E0,1.087070480E-3
4.770770417E0,5.695590042E-3
4.780709417E0,4.974957258E-3
4.790647417E0,5.210965499E-3
4.800586417E0,6.221875995E-3
4.810525417E0,5.217726342E-3
4.820463417E0,9.877591766E-3
4.830402417E0,5.161337256E-3
4.840340417E0,1.738614757E-2
4.850279417E0,-3.142147511E-3
4.860218417E0,1.057761312E-3
4.870156417E0,-1.395766921E-3
4.880095417E0,-7.204135135E-3
4.890034417E0,5.767912790E-3
4.899972417E0,4.759962447E-3
4.909911417E0,1.297562934E-2
4.919849417E0,9.608510211E-3
4.929788417E0,-3.765606880E-4
4.939727417E0,1.208144389E-3
4.949665417E0,3.113459609E-3
4.959604417E0,9.424542189E-3
4.969543417E0,6.231925897E-3
4.979481417E0,2.902082764E-3
4.989420417E0,4.767381102E-3
4.999359417E0,2.212915309E-3
5.009297417E0,5.124426708E-3
5.019236417E0,-1.252839044E-3
5.029174417E0,1.404632762E-2
5.039113417E0,1.752852727E-2
5.049052417E0,6.070798561E-3
5.058990417E0,5.802082457E-3
5.068929417E0,5.142333806E-3
5.078868417E0,-2.511123307E-3
5.088806417E0,-8.714178577E-4
5.098745417E0,-6.085197330E-3
5.108683417E0,-9.412920848E-4
5.118622417E0,2.897185721E-3
5.128561417E0,1.312042102E-3
5.138499417E0,4.966624975E-3
5.148438417E0,7.701769732E-3
5.158377417E0,5.968508832E-3
5.168315417E0,5.484871008E-3
5.178254417E0,8.276514485E-3
5.188193417E0,1.118736807E-2
5.198131417E0,2.368889786E-3
5.208070417E0,-2.250666395E-3
5.218008417E0,4.314075708E-3
5.227947417E0,1.557402235E-2
5.237886417E0,7.295644060E-3
5.247824417E0,1.522278741E-2
5.257763417E0,8.605603091E-3
5.267702417E0,1.718862131E-3
5.277639667E0,5.396833867E-3
5.287578667E0,5.862528048E-3
5.297516667E0,7.037672214E-3
5.307455667E0,6.535396390E-3
5.317394667E0,4.977113418E-3
5.327332667E0,7.584094517E-3
5.337271667E0,6.479847841E-3
5.347210667E0,1.324434545E-2
5.357148667E0,3.687144555E-3
5.367087667E0,2.708466835E-3
5.377026667E0,3.420109525E-3
5.386964667E0,2.440189272E-3
5.396903667E0,3.133193962E-3
5.406841667E0,2.622951306E-3
5.416780667E0,9.462037459E-3
5.426719667E0,6.711397581E-3
5.436657667E0,1.264701582E-2
5.446596667E0,9.537722357E-3
5.456535667E0,-4.887175933E-3
5.466473667E0,2.883773670E-3
5.476412667E0,3.433156125E-3
5.486351667E0,-2.365381457E-3
5.496289667E0,2.059681714E-3
5.506228667E0,2.259217948E-3
5.516166667E0,3.446641266E-3
5.526105667E0,-1.068797931E-3
5.536044667E0,2.192048058E-3
5.545982667E0,-1.226892024E-3
5.555921667E0,1.645150669E-3
5.565860667E0,4.371086061E-3
5.575798667E0,1.130676091E-2
5.585737667E0,6.906584948E-3
5.595675667E0,3.622679003E-3
5.605614667E0,4.662423581E-3
5.615553667E0,5.943694711E-3
5.625491667E0,4.301723465E-3
5.635430667E0,6.435920633E-3
5.645369667E0,-1.078007296E-3
5.655307667E0,-1.226818934E-4
5.665246667E0,-1.903634146E-4
5.675184667E0,7.691646740E-4
5.685123667E0,3.459870592E-3
5.695062667E0,1.072138153E-2
5.705000667E0,4.726414047E-3
5.714939667E0,3.025495559E-3
5.724878667E0,-1.327939220E-3
5.734816667E0,4.646197557E-3
5.744755667E0,2.513316013E-3
5.754694667E0,5.579778627E-3
5.764632667E0,9.705683626E-3
5.774571667E0,-1.648805179E-3
5.784509667E0,2.641808577E-3
5.794448667E0,3.204895444E-3
5.804387667E0,1.366629515E-2
5.814325667E0,6.869601309E-3
5.824264667E0,1.048113406E-3
5.834203667E0,-3.440720960E-3
5.844141667E0,-4.651021510E-3
5.854080667E0,5.559971184E-4
5.864019667E0,-9.087304026E-4
5.873957667E0,6.816026196E-4
5.883896667E0,2.448887005E-3
5.893834667E0,3.275683299E-3
5.903773667E0,-8.427299559E-4
5.913712667E0,3.533910960E-5
5.923650667E0,9.119829163E-4
5.933589667E0,4.176300690E-3
5.943528667E0,2.587831467E-3
5.953466667E0,-2.567585483E-3
5.963405667E0,-1.115064025E-3
5.973343667E0,4.690417126E-3
5.983282667E0,-1.675665826E-3
5.993221667E0,3.579080701E-3
6.003159667E0,5.984954126E-3
6.013098667E0,7.524891458E-3
6.023037667E0,7.109848782E-3
6.032975667E0,3.821520880E-4
6.042914667E0,-2.780679949E-3
6.052853667E0,-5.425850675E-4
6.062791667E0,-7.369318977E-4
6.072730667E0,2.257683054E-3
6.082668667E0,-1.358381286E-4
6.092607667E0,5.075748637E-4
6.102546667E0,1.021106578E-3
6.112484667E0,-1.974166185E-4
6.122423667E0,-1.044093445E-3
6.132362667E0,4.670865498E-3
6.142300667E0,6.260211803E-3
6.152239667E0,4.027379416E-3
6.162178667E0,4.914584756E-4
6.172116667E0,1.227184385E-4
6.182055667E0,-1.642665602E-3
6.191993667E0,3.552914411E-4
6.201932667E0,2.170998082E-3
6.211871667E0,-6.960562058E-3
6.221809667E0,4.602306895E-3
6.231748667E0,6.085562780E-3
6.241687667E0,5.319906436E-3
6.251625667E0,8.324936740E-3
6.261564667E0,8.172397502E-3
6.271503667E0,2.824132070E-3
6.281442417E0,-9.583586454E-4
6.291381417E0,6.605234072E-3
6.301319417E0,-5.085981265E-4
6.311258417E0,1.475267127E-2
6.321197417E0,1.058327761E-2
6.331135417E0,5.196603276E-3
6.341074417E0,3.120732084E-3
6.351013417E0,3.838295080E-3
6.360951417E0,6.957455724E-3
6.370890417E0,5.531648733E-3
6.380829417E0,1.828314699E-3
6.390767417E0,5.000100285E-3
6.400706417E0,8.299282081E-3
6.410644417E0,9.704769999E-3
6.420583417E0,6.317477971E-3
6.430522417E0,5.278902836E-3
6.440460417E0,-3.037007265E-3
6.450399417E0,2.589951083E-3
6.460338417E0,5.649506673E-4
6.470276417E0,8.379973657E-3
6.480215417E0,8.540406637E-3
6.490154417E0,8.873369023E-3
6.500092417E0,3.120037727E-3
6.510031417E0,2.491937131E-3
6.519969417E0,4.106791914E-3
6.529908417E0,-9.441426024E-4
6.539847417E0,-6.720278040E-4
6.549785417E0,2.734925486E-3
6.559724417E0,-5.201756135E-3
6.569663417E0,1.591539010E-4
6.579601417E0,8.041164055E-3
6.589540417E0,-3.185745813E-3
6.599479417E0,1.427816972E-3
6.609417417E0,5.122014731E-3
6.619356417E0,3.988531977E-4
6.629294417E0,4.812952839E-3
6.639233417E0,4.519897699E-4
6.649172417E0,-9.439598769E-4
6.659110417E0,5.908611417E-3
6.669049417E0,-4.238354266E-3
6.678988417E0,2.570253275E-3
6.688926417E0,6.106685847E-5
6.698865417E0,2.393119186E-3
6.708804417E0,1.086485758E-2
6.718742417E0,2.308005653E-3
6.728681417E0,8.216945976E-3
6.738619417E0,8.340797313E-3
6.748558417E0,-1.972887106E-3
6.758497417E0,-1.650778614E-3
6.768435417E0,-1.349427737E-3
6.778374417E0,-4.330594093E-4
6.788313417E0,-1.407972984E-3
6.798251417E0,1.304221451E-3
6.808190417E0,9.853508547E-3
6.818129417E0,-1.432567835E-5
6.828067417E0,1.135883767E-2
6.838006417E0,1.317882009E-2
6.847944417E0,8.968569003E-3
6.857883417E0,4.616522938E-3
6.867822417E0,-3.383893333E-3
6.877760417E0,1.330497377E-3
6.887699417E0,6.008964255E-3
6.897638417E0,-4.104416482E-3
6.907576417E0,-3.241367452E-3
6.917515417E0,3.007076830E-3
6.927454417E0,2.185506485E-3
6.937392417E0,5.225985534E-3
6.947331417E0,7.013333179E-3
6.957269417E0,2.228885517E-4
6.967208417E0,3.975741193E-4
6.977147417E0,-5.249630213E-3
6.987085417E0,-6.088047847E-4
6.997024417E0,-3.645994775E-3
7.006963417E0,3.192397021E-3
7.016901417E0,2.138290219E-3
7.026840417E0,3.398694098E-4
7.036779417E0,9.930837974E-3
7.046717417E0,7.273570821E-4
7.056656417E0,-2.356025912E-3
7.066594417E0,4.836012796E-3
7.076533417E0,6.472758092E-3
7.086472417E0,3.240892366E-3
7.096410417E0,2.122502737E-3
7.106349417E0,7.070891708E-3
7.116288417E0,6.381066442E-3
7.126226417E0,4.555711895E-4
7.136165417E0,7.046991214E-4
7.146104417E0,8.379060030E-4
7.156042417E0,6.711470671E-3
7.165981417E0,1.351181902E-3
7.175919417E0,3.170287237E-4
7.185858417E0,2.332600504E-3
7.195797417E0,7.300760373E-3
7.205735417E0,3.473648094E-3
7.215674417E0,-1.799480617E-3
7.225613417E0,2.958471850E-3
7.235551417E0,8.353697732E-3
7.245490417E0,6.977518983E-3
7.255429417E0,-2.308736555E-3
7.265367417E0,3.453694470E-3
7.275306417E0,2.835168689E-3
7.285244167E0,1.903159060E-3
7.295183167E0,4.388116077E-3
7.305122167E0,-1.284852549E-3
7.315060167E0,-1.205878593E-3
7.324999167E0,8.357096426E-3
7.334938167E0,4.048392847E-3
7.344876167E0,3.794623688E-3
7.354815167E0,2.336730100E-3
7.364754167E0,8.754743636E-4
7.374692167E0,-6.895694509E-4
7.384631167E0,9.654228128E-3
7.394569167E0,9.243059233E-3
7.404508167E0,4.628546275E-3
7.414447167E0,1.595193520E-4
7.424385167E0,4.326683767E-3
7.434324167E0,1.207786247E-2
7.444263167E0,4.618971460E-3
7.454201167E0,3.463378921E-4
7.464140167E0,1.094708405E-3
7.474079167E0,3.766228147E-3
7.484017167E0,8.002535887E-3
7.493956167E0,4.709493667E-3
7.503894167E0,4.989465661E-3
7.513833167E0,1.219210245E-2
7.523772167E0,-7.542908192E-5
7.533710167E0,3.198280782E-3
7.543649167E0,2.857461199E-3
7.553588167E0,5.098260418E-3
7.563526167E0,5.159985088E-3
7.573465167E0,1.826450899E-3
7.583404167E0,-1.116452739E-3
7.593342167E0,-4.745015502E-3
7.603281167E0,4.356650747E-3
7.613220167E0,2.264590077E-3
7.623158167E0,7.115403637E-3
7.633097167E0,6.275633834E-3
7.643035167E0,4.485216402E-3
7.652974167E0,3.987947255E-3
7.662913167E0,-8.812119439E-4
7.672851167E0,4.033043906E-3
7.682790167E0,-2.517591789E-4
7.692729167E0,4.587140679E-3
7.702667167E0,6.026286632E-5
7.712606167E0,-4.739424102E-3
7.722544167E0,9.234653860E-3
7.732483167E0,5.266477503E-3
7.742422167E0,-3.477960415E-3
7.752360167E0,3.705051653E-3
7.762299167E0,9.025652446E-3
7.772238167E0,7.849521562E-3
7.782176167E0,1.747878939E-3
7.792115167E0,1.858866401E-3
7.802054167E0,-2.701048180E-4
7.811992167E0,8.274175599E-4
7.821931167E0,2.455245852E-3
7.831870167E0,2.547778040E-3
7.841808167E0,2.556512319E-3
7.851747167E0,6.834773831E-3
7.861685167E0,2.648788691E-4
7.871624167E0,-7.527559251E-4
7.881563167E0,7.728045657E-3
7.891501167E0,1.176967766E-2
7.901440167E0,9.678749889E-3
7.911379167E0,9.095709398E-3
7.921317167E0,8.013755232E-3
7.931256167E0,2.770154960E-3
7.941195167E0,2.614801750E-4
7.951133167E0,-1.164765358E-3
7.961072167E0,1.229216293E-2
7.971011167E0,7.842870355E-3
7.980949167E0,3.677971736E-3
7.990888167E0,2.904129289E-3
8.000826167E0,8.117835671E-3
8.010765167E0,9.031463116E-3
8.020704167E0,6.321899928E-3
8.030642167E0,-5.367451608E-3
8.040581167E0,8.256633952E-4
8.050520167E0,1.298414435E-2
8.060458167E0,1.036111996E-2
8.070397167E0,5.461409055E-3
8.080336167E0,5.336169004E-3
8.090274167E0,3.616173975E-3
8.100213167E0,-5.315119028E-4
8.110151167E0,2.241749391E-3
8.120090167E0,4.935086556E-3
8.130029167E0,1.266506910E-3
8.139967167E0,-1.187715679E-3
8.149906167E0,3.319537416E-3
8.159845167E0,6.174148098E-3
8.169783167E0,7.545356713E-3
8.179722167E0,9.889103472E-3
8.189661167E0,1.087066825E-2
8.199599167E0,4.131021313E-3
8.209538167E0,4.415195994E-3
8.219477167E0,3.285294659E-3
8.229415167E0,4.101639055E-3
8.239354167E0,8.168048635E-3
8.249292167E0,7.051230446E-3
8.259231167E0,3.737649880E-3
8.269170167E0,4.068785012E-3
8.279108167E0,-6.272966042E-4
8.289047167E0,5.085140727E-3
8.298986167E0,7.418618314E-3
8.308924167E0,4.102845043E-3
8.318863167E0,3.165865280E-3
8.328802167E0,4.741287902E-3
8.338740167E0,4.971156567E-3
8.348679167E0,-6.117649376E-5
8.358617167E0,8.292046152E-3
8.368556167E0,5.816298500E-3
8.378495167E0,2.721294165E-3
8.388433167E0,5.751686767E-3
8.398372167E0,-2.132918090E-3
8.408311167E0,1.382537596E-3
8.418249167E0,1.224004962E-3
8.428188167E0,7.262534201E-3
8.438127167E0,1.121890649E-2
8.448065167E0,-7.609785721E-4
8.458004167E0,7.427206412E-3
8.467943167E0,6.076828502E-3
8.477881167E0,8.003961146E-3
8.487820167E0,5.283178613E-3
8.497758167E0,-1.190529652E-3
8.507697167E0,9.048346952E-3
8.517636167E0,1.712492321E-2
8.527574167E0,2.351311594E-4
8.537513167E0,2.277673222E-3
8.547452167E0,1.082685068E-3
8.557390167E0,6.669772714E-3
8.567329167E0,5.756145269E-3
8.577268167E0,6.267484277E-5
8.587206167E0,8.593397029E-3
8.597145167E0,4.993449077E-3
8.607084167E0,2.959385477E-3
8.617022167E0,3.860295229E-3
8.626961167E0,1.250244342E-2
8.636899167E0,1.113452386E-2
8.646838167E0,6.402737685E-3
8.656777167E0,-3.537565470E-4
8.666715167E0,4.946671352E-3
8.676654167E0,-5.674284250E-3
8.686593167E0,-1.739473566E-3
8.696531167E0,7.158051766E-3
8.706470167E0,-1.820822954E-3
8.716409167E0,1.127712283E-2
8.726347167E0,8.851295784E-3
8.736286167E0,6.024459377E-3
8.746225167E0,4.853956439E-3
8.756163167E0,1.126177389E-2
8.766102167E0,6.189716309E-3
8.776040167E0,7.957914323E-3
8.785979167E0,7.271889746E-3
8.795918167E0,4.355737120E-3
8.805856167E0,5.103705637E-3
8.815795167E0,5.685101599E-3
8.825734167E0,1.349793188E-2
8.835672167E0,4.004794545E-3
8.845611167E0,4.466834217E-3
8.855550167E0,6.914844140E-3
8.865488167E0,-2.721294165E-3
8.875427167E0,4.573618993E-3
8.885365167E0,1.077594336E-2
8.895304167E0,2.138107494E-3
8.905243167E0,2.372069210E-3
8.915181167E0,5.999572165E-3
8.925120167E0,5.553283431E-3
8.935059167E0,4.414538182E-3
8.944997167E0,-1.303782910E-3
8.954936167E0,7.213673405E-3
8.964875167E0,6.236092038E-3
8.974813167E0,2.901424952E-3
8.984752167E0,2.623536028E-3
8.994691167E0,1.014078956E-2
9.004629167E0,1.701210849E-3
9.014568167E0,1.187050559E-2
9.024506167E0,6.122509874E-3
9.034445167E0,1.339195110E-3
9.044384167E0,5.656340607E-3
9.054322167E0,5.741234869E-3
9.064261167E0,1.764017254E-2
9.074200167E0,9.557858706E-3
9.084138167E0,8.880458772E-4
9.094077167E0,2.684383616E-3
9.104016167E0,9.325102977E-3
9.113954167E0,7.104367018E-3
9.123893167E0,9.809215888E-3
9.133832167E0,1.140280142E-3
9.143770167E0,2.491937131E-3
9.153709167E0,3.486694694E-3
9.163647167E0,6.093419977E-3
9.173586167E0,7.709480748E-3
9.183525167E0,7.567393407E-4
9.193463167E0,7.480489165E-3
9.203402167E0,4.698859043E-3
9.213341167E0,9.735248610E-4
9.223279167E0,7.632809132E-3
9.233218167E0,1.580465846E-3
9.243157167E0,-2.427654304E-3
9.253095167E0,8.726603910E-3
9.263034167E0,-2.230858952E-3
9.272973167E0,7.007778324E-3
9.282911167E0,9.833226018E-3
9.292850167E0,-2.760835961E-3
9.302789167E0,-1.657174006E-3
9.312727167E0,1.020105243E-2
9.322666167E0,1.055422425E-2
9.332604167E0,-2.997355834E-3
9.342543167E0,1.033396695E-2
9.352482167E0,7.454176694E-3
9.362420167E0,7.860448547E-3
9.372359167E0,1.244386163E-2
9.382298167E0,-2.869521081E-4
9.392236167E0,7.528290153E-4
9.402175167E0,1.389736980E-3
9.412114167E0,-8.151384071E-4
9.422052167E0,9.263487943E-3
9.431991167E0,8.630928844E-3
9.441929167E0,8.995904736E-3
9.451868167E0,1.395072564E-3
9.461807167E0,7.053459696E-3
9.471745167E0,1.423234217E-2
9.481684167E0,7.687480599E-3
9.491623167E0,6.770637184E-3
9.501561167E0,9.474170431E-3
9.511500167E0,1.035041224E-2
9.521439167E0,6.000083797E-3
9.531377167E0,2.029568553E-3
9.541316167E0,5.165284127E-3
9.551255167E0,8.332684301E-3
9.561193167E0,1.590406112E-3
9.571132167E0,5.922937095E-3
9.581071167E0,5.528286584E-3
9.591009167E0,7.083901763E-4
9.600948167E0,-5.652576461E-3
9.610886167E0,7.683460638E-3
9.620825167E0,7.547074333E-3
9.630764167E0,8.699195087E-4
9.640702167E0,-3.846006095E-3
9.650641167E0,2.920501493E-3
9.660580167E0,2.400245480E-3
9.670518167E0,1.901039444E-3
9.680457167E0,8.202437572E-3
9.690396167E0,5.610768870E-3
9.700334167E0,7.745770030E-3
9.710273167E0,1.019308560E-2
9.720212167E0,7.251643762E-3
9.730150167E0,-8.770092577E-4
9.740089167E0,2.532356009E-3
9.750028167E0,9.209364653E-3
9.759966167E0,4.249573611E-3
9.769905167E0,6.711324491E-3
9.779843167E0,1.268005259E-3
9.789782167E0,7.707726583E-3
9.799721167E0,5.756839626E-3
9.809659167E0,3.502993807E-3
9.819598167E0,5.195287652E-3
9.829537167E0,6.940973885E-3
9.839475167E0,-3.109293468E-3
9.849414167E0,-8.572420143E-3
9.859353167E0,3.876228891E-3
9.869291167E0,1.343909428E-3
9.879230167E0,-9.255046025E-4
9.889169167E0,4.776042290E-3
9.899107167E0,5.776098892E-3
9.909046167E0,7.075788751E-3
9.918984167E0,1.197652292E-2
9.928923167E0,4.375983104E-3
9.938862167E0,5.264577158E-3
9.948800167E0,5.016874485E-3
9.958739167E0,6.244387776E-3
9.968678167E0,4.936548360E-3
9.978616167E0,1.072744802E-3
9.988555167E0,4.597007856E-3
9.998494167E0,8.193666749E-3
1.000843217E1,2.858338282E-3
1.001837117E1,7.772667222E-3
1.002831017E1,1.114705883E-2
1.003824817E1,8.328554705E-3
1.004818717E1,3.175147735E-3
1.005812517E1,4.651240781E-3
1.006806417E1,6.061479561E-3
1.007800317E1,4.214526862E-3
1.008794117E1,7.512575760E-3
1.009788017E1,2.065273114E-3
1.010781917E1,2.415338606E-3
1.011775717E1,3.280653432E-3
1.012769617E1,9.727099054E-3
1.013763517E1,6.818255447E-3
1.014757317E1,8.489791676E-3
1.015751217E1,5.847873464E-3
1.016745117E1,6.515735127E-3
1.017738917E1,8.295627572E-3
1.018732817E1,3.018771261E-3
1.019726717E1,-9.013848379E-4
1.020720517E1,9.084307328E-3
1.021714417E1,6.576217264E-3
1.022708317E1,8.885428905E-3
1.023702117E1,4.494498856E-3
1.024696017E1,5.785088986E-5
1.025689817E1,7.262241840E-3
1.026683717E1,1.535632320E-2
1.027677617E1,1.321982369E-3
1.028671392E1,4.786384553E-3
1.029665292E1,7.226646915E-3
1.030659192E1,8.169620074E-3
1.031652992E1,2.302633524E-3
1.032646892E1,2.939468399E-3
1.033640792E1,8.189756423E-3
1.034634592E1,7.267796695E-3
1.035628492E1,2.360886410E-3
1.036622392E1,8.327567987E-3
1.037616192E1,1.179423597E-2
1.038610092E1,7.162875719E-3
1.039603892E1,1.364736479E-2
1.040597792E1,4.051535726E-3
1.041591692E1,7.048745379E-3
1.042585492E1,6.925515309E-3
1.043579392E1,2.657815330E-3
1.044573292E1,5.237058699E-3
1.045567092E1,4.824610725E-3
1.046560992E1,9.227491021E-3
1.047554892E1,2.428567931E-3
1.048548692E1,-8.993748575E-4
1.049542592E1,8.484127186E-3
1.050536492E1,3.329770043E-3
1.051530292E1,1.199844997E-2
1.052524192E1,7.981522456E-3
1.053518092E1,1.020181987E-2
1.054511892E1,1.850789934E-3
1.055505792E1,3.541914336E-3
1.056499692E1,1.099715084E-2
1.057493492E1,6.726052165E-3
1.058487392E1,4.116695635E-3
1.059481192E1,4.244274572E-3
1.060475092E1,3.933202699E-3
1.061468992E1,5.235487260E-3
1.062462792E1,1.189637952E-2
1.063456692E1,7.849411927E-3
1.064450592E1,-1.665396653E-3
1.065444392E1,5.273311436E-3
1.066438292E1,4.287836328E-3
1.067432192E1,7.817069516E-3
1.068425992E1,1.462315544E-3
1.069419892E1,1.814975739E-3
1.070413792E1,3.726832531E-3
1.071407592E1,3.708925433E-3
1.072401492E1,9.961901307E-3
1.073395292E1,3.720912226E-3
1.074389192E1,7.818823680E-3
1.075383092E1,3.397780471E-3
1.076376892E1,5.820026100E-3
1.077370792E1,1.303856000E-2
1.078364692E1,3.918109573E-3
1.079358492E1,5.453186408E-3
1.080352392E1,7.382950298E-3
1.081346292E1,1.015127800E-2
1.082340092E1,4.975322708E-3
1.083333992E1,5.006349497E-3
1.084327892E1,1.090849243E-2
1.085321692E1,1.227586381E-2
1.086315592E1,8.194324560E-3
1.087309492E1,6.179922223E-3
1.088303292E1,5.963611789E-3
1.089297192E1,1.301480569E-3
1.090291092E1,1.736732684E-3
1.091284892E1,5.264686793E-3
1.092278792E1,3.659151010E-3
1.093272592E1,3.689885437E-3
1.094266492E1,1.338168193E-2
1.095260392E1,1.033820618E-2
1.096254192E1,5.782092288E-3
1.097248092E1,-3.681370430E-3
1.098241992E1,1.108449362E-2
1.099235792E1,1.017214525E-2
1.100229692E1,2.175822034E-3
1.101223592E1,9.263085946E-4
1.102217392E1,1.569213610E-2
1.103211292E1,1.176200319E-2
1.104205192E1,3.023631759E-3
1.105198992E1,6.636991762E-3
1.106192892E1,3.402385153E-3
1.107186792E1,9.882488810E-3
1.108180592E1,1.233627286E-2
1.109174492E1,4.608300291E-3
1.110168392E1,-2.149948105E-3
1.111162192E1,9.049626030E-3
1.112156092E1,9.428452514E-3
1.113149892E1,7.957329601E-4
1.114143792E1,8.470788226E-4
1.115137692E1,6.275122203E-3
1.116131492E1,1.110130437E-3
1.117125392E1,6.562403217E-3
1.118119292E1,9.055875242E-4
1.119113092E1,4.153606184E-3
1.120106992E1,-1.201675907E-3
1.121100892E1,2.868790179E-5
1.122094692E1,8.363272548E-3
1.123088592E1,1.072236825E-2
1.124082492E1,6.980406046E-3
1.125076292E1,7.652872391E-3
1.126070192E1,3.963206224E-3
1.127064092E1,3.402969874E-3
1.128057892E1,3.904807158E-3
1.129051742E1,1.502113156E-3
1.130045642E1,4.541130401E-3
1.131039442E1,5.610878505E-3
1.132033342E1,4.420421943E-3
1.133027142E1,2.996259481E-3
1.134021042E1,4.271062128E-3
1.135014942E1,3.112253621E-3
1.136008742E1,3.891870193E-3
1.137002642E1,1.252692863E-3
1.137996542E1,5.131662637E-4
1.138990342E1,-3.171968311E-3
1.139984242E1,5.123805441E-3
1.140978142E1,1.136223637E-2
1.141971942E1,1.064248066E-2
1.142965842E1,5.417445302E-3
1.143959742E1,8.005349860E-3
1.144953542E1,5.413059890E-4
1.145947442E1,-1.232081428E-3
1.146941342E1,-5.803946257E-3
1.147935142E1,1.077974405E-2
1.148929042E1,6.991077214E-5
1.149922942E1,-1.500066631E-3
1.150916742E1,8.940721639E-3
1.151910642E1,4.068127200E-3
1.152904542E1,-6.691772863E-4
1.153898342E1,1.100643329E-2
1.154892242E1,-1.059003845E-3
1.155886042E1,1.063524473E-2
1.156879942E1,-3.626625873E-3
1.157873842E1,-2.179695815E-3
1.158867642E1,7.723806426E-3
1.159861542E1,1.910431534E-3
1.160855442E1,4.228194728E-3
1.161849242E1,2.440920174E-3
1.162843142E1,3.306710087E-3
1.163837042E1,6.101496443E-3
1.164830842E1,8.629686311E-3
1.165824742E1,3.903162628E-3
1.166818642E1,4.862325266E-4
1.167812442E1,6.382893696E-3
1.168806342E1,7.375348918E-3
1.169800242E1,3.823384680E-3
1.170794042E1,4.303916171E-4
1.171787942E1,-6.468482316E-4
1.172781742E1,-8.086333796E-4
1.173775642E1,1.967259161E-3
1.174769542E1,1.809749790E-3
1.175763442E1,1.162061021E-3
1.176757242E1,1.822284758E-3
1.177751142E1,7.475482486E-3
1.178744942E1,-1.509202905E-3
1.179738842E1,2.495226189E-3
1.180732742E1,2.763759568E-3
1.181726542E1,2.099990956E-3
1.182720442E1,9.626709670E-4
1.183714342E1,2.455099672E-4
1.184708142E1,8.718929440E-3
1.185702042E1,3.078157045E-3
1.186695942E1,4.799321517E-3
1.187689742E1,3.875826895E-3
1.188683642E1,1.792281233E-3
1.189677542E1,4.394767284E-3
1.190671342E1,1.057870947E-3
1.191665242E1,1.049611755E-3
1.192659142E1,9.862681367E-3
1.193652942E1,-2.328142002E-3
1.194646842E1,1.243118048E-3
1.195640742E1,3.679214269E-3
1.196634542E1,-1.802513860E-3
1.197628442E1,3.147300370E-3
1.198622242E1,-1.926401742E-3
1.199616142E1,2.554063797E-3
1.200610042E1,6.231377721E-3
1.201603842E1,-1.696423441E-4
1.202597742E1,2.049668357E-3
1.203591642E1,1.476195373E-2
1.204585442E1,1.368588332E-2
1.205579342E1,4.417059794E-3
1.206573242E1,-9.469638839E-3
1.207567042E1,8.817747384E-3
1.208560942E1,7.133201100E-3
1.209554842E1,9.585779160E-4
1.210548642E1,8.474040739E-3
1.211542542E1,1.225243840E-2
1.212536442E1,1.045555249E-4
1.213530242E1,4.599419832E-3
1.214524142E1,1.061485257E-2
1.215518042E1,4.642689228E-3
1.216511842E1,-2.035890855E-3
1.217505742E1,9.342790805E-3
1.218499642E1,4.056944400E-3
1.219493442E1,3.916684315E-3
1.220487342E1,1.593366265E-3
1.221481242E1,4.749035463E-3
1.222475042E1,4.379345253E-3
1.223468942E1,2.957229316E-4
1.224462742E1,3.389375098E-3
1.225456642E1,4.583120719E-4
1.226450542E1,-4.234005399E-3
1.227444342E1,4.542226754E-3
1.228438246E1,5.640260763E-3
1.229432146E1,7.998552471E-3
1.230425946E1,6.110230722E-3
1.231419846E1,7.141241021E-3
1.232413746E1,6.995462626E-3
1.233407546E1,9.359272644E-3
1.234401446E1,3.460638039E-3
1.235395346E1,4.378468171E-3
1.236389146E1,5.358863510E-3
1.237383046E1,-4.177104682E-5
1.238376946E1,3.173210844E-3
1.239370746E1,7.813013010E-3
1.240364646E1,-5.830185637E-3
1.241358546E1,3.278022185E-3
1.242352346E1,7.398993596E-3
1.243346246E1,1.200758625E-2
1.244340146E1,6.612214185E-3
1.245333946E1,3.638576120E-3
1.246327846E1,8.128251024E-3
1.247321646E1,6.149443612E-3
1.248315546E1,6.307866611E-3
1.249309446E1,5.533293262E-3
1.250303246E1,2.397468053E-3
1.251297146E1,2.039618455E-3
1.252291046E1,1.786762923E-3
1.253284846E1,1.309041750E-2
1.254278746E1,2.049207889E-2
1.255272646E1,1.172297303E-2
1.256266446E1,1.399743028E-2
1.257260346E1,9.506220482E-3
1.258254246E1,1.945701208E-2
1.259248046E1,4.137197435E-3
1.260241946E1,6.270736791E-3
1.261235846E1,1.804417860E-2
1.262229646E1,1.504488587E-3
1.263223546E1,3.966714554E-3
1.264217446E1,1.414839808E-2
1.265211246E1,1.139395751E-2
1.266205146E1,1.972258531E-2
1.267199046E1,5.419674553E-3
1.268192846E1,5.848129280E-3
1.269186746E1,1.100383859E-2
1.270180646E1,2.646193989E-3
1.271174446E1,1.366530843E-3
1.272168346E1,2.854501046E-3
1.273162146E1,1.149284855E-2
1.274156046E1,6.169214509E-3
1.275149946E1,4.183390439E-3
1.276143746E1,1.159791570E-2
1.277137646E1,5.223135017E-3
1.278131546E1,1.005980562E-2
1.279125346E1,-1.556748077E-3
1.280119246E1,7.111018226E-3
1.281113146E1,5.441747792E-3
1.282106946E1,3.083456084E-3
1.283100846E1,1.025846478E-2
1.284094746E1,1.233261835E-2
1.285088546E1,4.795667008E-3
1.286082446E1,9.258188903E-3
1.287076346E1,5.427751020E-3
1.288070146E1,1.017097581E-2
1.289064046E1,6.768590659E-3
1.290057946E1,8.920548744E-3
1.291051746E1,4.007498883E-3
1.292045646E1,-5.869873613E-4
1.293039546E1,6.002934314E-3
1.294033346E1,-5.325351655E-4
1.295027246E1,1.145052932E-2
1.296021146E1,7.424026988E-3
1.297014946E1,9.146507084E-4
1.298008846E1,4.245553650E-3
1.299002746E1,1.636390809E-2
1.299996546E1,1.307627454E-2
1.300990446E1,5.372531377E-3
1.301984246E1,6.918864101E-3
1.302978146E1,-2.515654899E-3
1.303972046E1,4.434601441E-3
1.304965846E1,1.304575939E-2
1.305959746E1,6.770271733E-3
1.306953646E1,-1.346759945E-3
1.307947446E1,3.434033208E-3
1.308941346E1,1.354986247E-2
1.309935246E1,3.809789903E-3
1.310929046E1,-4.361511245E-3
1.311922946E1,2.519894131E-3
1.312916846E1,2.851504348E-3
1.313910646E1,6.265693568E-3
1.314904546E1,8.875232823E-3
1.315898446E1,7.899332531E-3
1.316892246E1,7.903973758E-4
1.317886146E1,1.176386699E-3
1.318880046E1,1.095439307E-2
1.319873846E1,6.263793223E-3
1.320867746E1,1.144409738E-3
1.321861646E1,3.971903957E-3
1.322855446E1,6.460076943E-3
1.323849346E1,9.908106923E-4
1.324843246E1,-1.535917372E-3
1.325837046E1,2.236486897E-3
1.326830946E1,-3.667885289E-3
1.327824846E1,3.982282765E-3
1.328818696E1,8.924166709E-3
1.329812596E1,1.899431460E-3
1.330806496E1,1.646100841E-3
1.331800296E1,2.400318570E-3
1.332794196E1,8.707600459E-3
1.333788096E1,-3.728659786E-3
1.334781896E1,6.414212845E-3
1.335775796E1,1.037266821E-2
1.336769696E1,2.278404124E-3
1.337763496E1,8.506383151E-3
1.338757396E1,3.309158608E-3
1.339751196E1,4.342325069E-3
1.340745096E1,6.158470251E-3
1.341738996E1,6.772062443E-3
1.342732796E1,3.010036983E-3
1.343726696E1,5.270424373E-3
1.344720596E1,6.381724253E-3
1.345714396E1,6.116297208E-3
1.346708296E1,7.682473920E-3
1.347702196E1,1.006024417E-2
1.348695996E1,1.130347185E-2
1.349689896E1,8.778424859E-3
1.350683796E1,1.347600482E-3
1.351677596E1,2.121808380E-3
1.352671496E1,3.778068759E-3
1.353665396E1,3.171566315E-3
1.354659196E1,4.343567602E-3
1.355653096E1,7.531944662E-4
1.356646996E1,8.083117828E-3
1.357640796E1,6.689616702E-3
1.358634696E1,1.434424326E-2
1.359628596E1,7.890525162E-3
1.360622396E1,-1.583864540E-4
1.361616296E1,4.590064287E-3
1.362610196E1,3.149602711E-3
1.363603996E1,1.793998852E-4
1.364597896E1,-2.398637496E-3
1.365591796E1,1.554080285E-3
1.366585596E1,3.368909843E-3
1.367579496E1,7.874518409E-3
1.368573396E1,5.801899731E-3
1.369567196E1,6.005821377E-4
1.370561096E1,1.364776678E-3
1.371554996E1,9.552194215E-3
1.372548796E1,9.424505644E-3
1.373542696E1,-2.404448166E-3
1.374536596E1,6.310205497E-3
1.375530396E1,3.808949366E-3
1.376524296E1,7.060001269E-3
1.377518096E1,6.844312102E-3
1.378511996E1,5.844218954E-3
1.379505896E1,6.696633361E-3
1.380499696E1,1.319680028E-3
1.381493596E1,3.276487291E-3
1.382487496E1,1.089248568E-2
1.383481296E1,3.230075017E-3
1.384475196E1,-2.612974495E-5
1.385469096E1,-1.010143049E-3
1.386462896E1,1.095548943E-3
1.387456796E1,-5.344355106E-4
1.388450696E1,3.318112157E-3
1.389444496E1,3.226859048E-3
1.390438396E1,9.533373490E-3
1.391432296E1,8.454964198E-3
1.392426096E1,-1.042193100E-3
1.393419996E1,6.586157531E-4
1.394413896E1,6.601616107E-3
1.395407696E1,-5.039934441E-4
1.396401596E1,1.111745730E-2
1.397395496E1,8.577828817E-3
1.398389296E1,4.149147682E-3
1.399383196E1,5.754318014E-3
1.400377096E1,7.268491052E-3
1.401370896E1,2.903800383E-3
1.402364796E1,4.367504641E-3
1.403358696E1,1.075814590E-3
1.404352496E1,-4.740228094E-3
1.405346396E1,3.586060815E-3
1.406340296E1,8.536057770E-3
1.407334096E1,-8.388927206E-3
1.408327996E1,-5.228909142E-3
1.409321896E1,-9.381857514E-4
1.410315696E1,6.297853254E-3
1.411309596E1,6.783062518E-3
1.412303496E1,4.635672569E-3
1.413297296E1,6.914953776E-3
1.414291196E1,-8.357863873E-4
1.415285096E1,1.303271279E-3
1.416278896E1,1.770536900E-3
1.417272796E1,-1.418059431E-3
1.418266696E1,8.834411949E-4
1.419260496E1,6.299607418E-3
1.420254396E1,8.997768536E-4
1.421248196E1,-7.274667174E-4
1.422242096E1,6.429123245E-3
1.423235996E1,-7.531835027E-3
1.424229796E1,4.851690643E-3
1.425223696E1,7.054080963E-3
1.426217596E1,5.978997275E-3
1.427211496E1,8.460190147E-5
1.428205296E1,7.187616751E-3
1.429199217E1,6.554107480E-3
1.430193017E1,7.014283352E-3
1.431186917E1,6.357092857E-3
1.432180817E1,1.079366773E-2
1.433174617E1,8.178427443E-4
1.434168517E1,-4.429083131E-3
1.435162417E1,-1.032077417E-2
1.436156217E1,3.516369313E-3
1.437150117E1,1.056745358E-2
1.438144017E1,4.574715346E-4
1.439137817E1,1.083551187E-2
1.440131717E1,1.324478399E-2
1.441125617E1,7.135320716E-3
1.442119417E1,1.254911151E-2
1.443113317E1,8.303923309E-3
1.444107217E1,4.195157960E-3
1.445101017E1,4.971668199E-3
1.446094917E1,6.028479338E-3
1.447088817E1,9.970452860E-3
1.448082617E1,4.794022478E-3
1.449076517E1,3.440976776E-3
1.450070417E1,-2.810391113E-3
1.451064217E1,1.268374365E-2
1.452058117E1,1.062782608E-2
1.453052017E1,6.470309570E-3
1.454045817E1,6.681467146E-3
1.455039717E1,2.128057592E-3
1.456033617E1,-5.322610773E-3
1.457027417E1,2.135074250E-3
1.458021317E1,1.348528728E-2
1.459015217E1,-4.354384951E-3
1.460009017E1,8.185005561E-3
1.461002917E1,2.885016203E-3
1.461996817E1,5.358169153E-3
1.462990617E1,5.874368660E-3
1.463984517E1,1.149500471E-2
1.464978417E1,6.981721669E-3
1.465972217E1,6.005821377E-3
1.466966117E1,-6.889847293E-4
1.467960017E1,2.918710783E-3
1.468953817E1,7.393767647E-3
1.469947717E1,3.569688611E-3
1.470941617E1,4.683290832E-3
1.471935417E1,-1.321872734E-3
1.472929317E1,1.180187389E-3
1.473923217E1,2.178709097E-3
1.474917017E1,-8.070363589E-3
1.475910917E1,-2.012794353E-3
1.476904817E1,9.282016307E-3
1.477898617E1,1.080382727E-3
1.478892517E1,9.431558847E-4
1.479886417E1,-2.185250670E-3
1.480880217E1,-2.363736928E-4
1.481874117E1,2.088625431E-3
1.482868017E1,1.594787870E-2
1.483861817E1,6.691590138E-3
1.484855717E1,-2.663735636E-3
1.485849617E1,7.502598949E-3
1.486843417E1,4.345139042E-3
1.487837317E1,1.646904834E-3
1.488831217E1,2.737958729E-4
1.489825017E1,6.410302520E-3
1.490818917E1,1.390975859E-2
1.491812817E1,2.387381606E-3
1.492806617E1,-5.087443069E-4
1.493800517E1,2.822341360E-3
1.494794417E1,1.437684149E-3
1.495788217E1,4.103466310E-3
1.496782117E1,5.976914205E-3
1.497776017E1,-7.339717448E-3
1.498769817E1,-2.916810438E-3
1.499763717E1,1.198408775E-2
1.500757617E1,7.353275679E-3
1.501751417E1,4.342982881E-3
1.502745317E1,1.381843239E-3
1.503739217E1,2.066223286E-3
1.504733017E1,3.194553182E-3
1.505726917E1,5.788670406E-3
1.506720817E1,1.061660673E-2
1.507714617E1,8.689364456E-3
1.508708517E1,1.422591023E-3
1.509702417E1,3.206941970E-3
1.510696217E1,1.172914915E-2
1.511690117E1,9.230633900E-3
1.512684017E1,-3.963900581E-3
1.513677817E1,-2.881544419E-3
1.514671717E1,1.258868985E-3
1.515665617E1,2.451883703E-3
1.516659417E1,-1.122519225E-3
1.517653317E1,-3.384002969E-3
1.518647117E1,-3.696500100E-3
1.519641017E1,-2.198918536E-4
1.520634917E1,7.159111574E-3
1.521628817E1,6.385890394E-3
1.522622617E1,3.455010094E-3
1.523616517E1,-2.444282323E-3
1.524610317E1,1.491061918E-2
1.525604217E1,7.513343208E-3
1.526598117E1,1.551193222E-3
1.527591917E1,-1.295560263E-3
1.528585883E1,9.854495265E-3
1.529579783E1,8.093277365E-3
1.530573583E1,9.385146573E-4
1.531567483E1,8.361518383E-5
1.532561383E1,3.463123105E-3
1.533555183E1,-1.661742143E-3
1.534549083E1,-4.049781561E-3
1.535542983E1,1.099641994E-3
1.536536783E1,-1.000495143E-3
1.537530683E1,8.723351397E-3
1.538524583E1,3.576010913E-3
1.539518383E1,7.958499044E-3
1.540512283E1,5.035256669E-3
1.541506183E1,3.045887724E-3
1.542499983E1,2.539299577E-3
1.543493883E1,1.273742840E-3
1.544487783E1,-4.650656059E-3
1.545481583E1,1.246699467E-3
1.546475483E1,2.131090835E-3
1.547469383E1,1.417160422E-2
1.548463183E1,3.639014661E-3
1.549457083E1,3.889531307E-3
1.550450983E1,1.479601376E-3
1.551444783E1,1.287995428E-3
1.552438683E1,9.485389777E-3
1.553432583E1,3.479860760E-3
1.554426383E1,-2.135476246E-3
1.555420283E1,-2.441687621E-3
1.556414183E1,1.132686071E-2
1.557407983E1,4.556552432E-3
1.558401883E1,6.568579338E-3
1.559395783E1,-5.515020713E-4
1.560389583E1,-1.128589366E-2
1.561383483E1,3.892162554E-3
1.562377383E1,-2.354089022E-3
1.563371183E1,-2.090745047E-3
1.564365083E1,1.019896936E-2
1.565358983E1,2.063007317E-3
1.566352783E1,3.135715574E-3
1.567346683E1,1.108211819E-2
1.568340583E1,7.826315425E-3
1.569334383E1,5.759068877E-3
1.570328283E1,8.213254921E-3
1.571322183E1,7.407070063E-3
1.572315983E1,1.259490252E-3
1.573309883E1,3.798826374E-3
1.574303783E1,7.869511731E-3
1.575297583E1,-1.144592464E-4
1.576291483E1,-9.765946493E-4
1.577285383E1,3.795573860E-3
1.578279183E1,5.429614820E-3
1.579273083E1,2.112379745E-3
1.580266983E1,3.768640123E-3
1.581260783E1,2.262287736E-3
1.582254683E1,-1.112761684E-3
1.583248583E1,5.060765147E-3
1.584242383E1,2.351896316E-3
1.585236283E1,4.152838737E-3
1.586230183E1,4.643639401E-3
1.587223983E1,-3.379105926E-3
1.588217883E1,4.301906191E-3
1.589211783E1,-2.024598420E-3
1.590205583E1,-2.780789584E-3
1.591199483E1,2.606725283E-3
1.592193383E1,7.745148763E-3
1.593187183E1,-1.362912878E-3
1.594181083E1,4.215111583E-4
1.595174983E1,8.231198564E-3
1.596168883E1,-4.301577285E-3
1.597162683E1,-4.158539772E-3
1.598156583E1,-4.314696975E-3
1.599150383E1,-8.465306461E-4
1.600144283E1,-6.014044024E-3
1.601138183E1,7.990804911E-3
1.602131983E1,2.638227157E-3
1.603125883E1,2.592180334E-3
1.604119783E1,-1.832736656E-3
1.605113683E1,2.116692066E-4
1.606107483E1,1.267785989E-3
1.607101383E1,-2.349593975E-3
1.608095283E1,-3.230732828E-3
1.609089083E1,7.385435365E-3
1.610082983E1,-1.666566096E-3
1.611076883E1,-1.993206181E-3
1.612070683E1,6.311557665E-3
1.613064583E1,-2.579170279E-3
1.614058483E1,1.939375252E-3
1.615052283E1,2.758204713E-3
1.616046183E1,8.060167506E-3
1.617039983E1,-4.443152994E-4
1.618033883E1,7.218789719E-3
1.619027783E1,5.394239165E-3
1.620021683E1,-4.208387285E-3
1.621015483E1,-7.645380646E-3
1.622009383E1,1.810992323E-3
1.623003283E1,1.707533151E-3
1.623997083E1,2.568718381E-3
1.624990983E1,3.279081993E-3
1.625984883E1,3.282261416E-3
1.626978683E1,1.252382230E-2
1.627972583E1,7.945781350E-3
1.628966354E1,-5.541479364E-3
1.629960154E1,5.216520354E-3
1.630954054E1,6.049529314E-3
1.631947954E1,8.059290424E-4
1.632941754E1,4.198191203E-3
1.633935654E1,2.037316114E-3
1.634929554E1,1.015588269E-3
1.635923354E1,7.041180544E-3
1.636917254E1,-4.652081318E-3
1.637911154E1,4.428900406E-4
1.638904954E1,6.530608982E-4
1.639898854E1,5.051628873E-4
1.640892754E1,1.201383546E-3
1.641886554E1,3.950561620E-3
1.642880454E1,2.924484909E-3
1.643874354E1,3.300607055E-3
1.644868154E1,4.326574132E-4
1.645862054E1,1.912697330E-3
1.646855954E1,-4.239231348E-4
1.647849754E1,-1.712174378E-3
1.648843654E1,3.482199647E-3
1.649837554E1,-2.283556983E-3
1.650831354E1,1.276995353E-3
1.651825254E1,7.903864123E-3
1.652819154E1,5.521343015E-3
1.653812954E1,-6.312069297E-4
1.654806854E1,-8.679826185E-4
1.655800754E1,1.176397663E-2
1.656794554E1,1.285875812E-3
1.657788454E1,7.397385612E-3
1.658782354E1,-3.239869103E-3
1.659776154E1,-6.840657592E-3
1.660770054E1,1.558867693E-3
1.661763954E1,1.181941554E-3
1.662757754E1,5.640589669E-3
1.663751654E1,6.759162024E-3
1.664745554E1,-4.266786352E-3
1.665739354E1,-3.175915182E-3
1.666733254E1,2.060631886E-3
1.667727154E1,-7.822478190E-4
1.668720954E1,3.067120425E-3
1.669714854E1,2.624851651E-3
1.670708754E1,-4.874202423E-3
1.671702554E1,-1.216769032E-3
1.672696454E1,1.872570813E-4
1.673690354E1,2.536047064E-3
1.674684154E1,7.625061572E-3
1.675678054E1,-8.680228181E-3
1.676671954E1,-7.925352640E-3
1.677665754E1,7.417302690E-3
1.678659654E1,3.392773792E-3
1.679653554E1,-5.689706281E-3
1.680647354E1,-2.752247863E-3
1.681641254E1,-2.464016676E-3
1.682635154E1,-4.762008972E-3
1.683628954E1,3.973548487E-3
1.684622854E1,8.493884727E-3
1.685616754E1,1.901002899E-3
1.686610554E1,-3.162832037E-3
1.687604454E1,8.771115839E-3
1.688598354E1,9.606354050E-3
1.689592154E1,-5.662662908E-4
1.690586054E1,3.186951801E-3
1.691579954E1,4.507983997E-3
1.692573754E1,-8.746667169E-3
1.693567654E1,-1.739217751E-3
1.694561554E1,-3.705599830E-3
1.695555354E1,5.327982903E-3
1.696549254E1,8.147473745E-3
1.697543154E1,-1.387251914E-4
1.698537054E1,-6.902893893E-3
1.699530854E1,7.365664467E-4
1.700524754E1,-2.085336372E-3
1.701518654E1,-4.110702239E-3
1.702512454E1,-4.606363401E-3
1.703506354E1,3.287414275E-3
1.704500254E1,-5.307115652E-3
1.705494054E1,-1.309776306E-4
1.706487954E1,2.039143369E-3
1.707481854E1,1.156275932E-2
1.708475654E1,-1.387471184E-3
1.709469554E1,-9.466130510E-3
1.710463454E1,3.268593550E-3
1.711457254E1,-3.592821658E-3
1.712451154E1,1.662436500E-4
1.713445054E1,-5.569838360E-3
1.714438854E1,3.164732382E-3
1.715432754E1,1.108226437E-2
1.716426654E1,1.180954836E-3
1.717420454E1,2.747752815E-3
1.718414354E1,-2.795699984E-3
1.719408254E1,-1.083635241E-3
1.720402054E1,-1.024724543E-4
1.721395954E1,-3.285550475E-3
1.722389854E1,2.694470063E-3
1.723383654E1,-6.033595651E-4
1.724377554E1,8.933302984E-3
1.725371454E1,2.668523043E-4
1.726365254E1,-9.320096299E-3
1.727359154E1,-7.941432483E-3
1.728353054E1,1.191340953E-2
1.729346904E1,-2.061545514E-3
1.730340804E1,-1.042814367E-3
1.731334704E1,-3.823457770E-3
1.732328504E1,7.996103950E-3
1.733322404E1,-8.265770227E-4
1.734316304E1,-1.485667862E-3
1.735310104E1,1.098655276E-2
1.736304004E1,3.388096020E-4
1.737297904E1,-5.948555209E-3
1.738291704E1,2.248546779E-3
1.739285604E1,5.007263124E-3
1.740279504E1,-6.365315504E-3
1.741273404E1,1.648695543E-3
1.742267204E1,6.548479535E-3
1.743261104E1,4.461535178E-3
1.744255004E1,-5.860846974E-3
1.745248804E1,9.784219041E-4
1.746242704E1,5.565781854E-3
1.747236604E1,3.749051951E-3
1.748230404E1,-4.268503971E-3
1.749224304E1,-4.957232885E-3
1.750218204E1,-6.717756428E-3
1.751212004E1,-2.574529052E-3
1.752205904E1,3.793819696E-3
1.753199804E1,3.125482947E-3
1.754193604E1,-1.750364006E-3
1.755187504E1,4.195815772E-3
1.756181404E1,-5.198832527E-3
1.757175204E1,-3.757457323E-3
1.758169104E1,3.371431455E-3
1.759163004E1,3.231719546E-3
1.760156804E1,-3.171749040E-4
1.761150704E1,2.469790801E-3
1.762144604E1,5.307334922E-3
1.763138404E1,5.132612810E-3
1.764132304E1,7.442336082E-3
1.765126204E1,1.401467957E-3
1.766120004E1,-1.490345635E-3
1.767113904E1,5.210380778E-3
1.768107804E1,-1.725842245E-3
1.769101604E1,2.164602689E-3
1.770095504E1,-3.049688414E-3
1.771089404E1,1.339487471E-3
1.772083204E1,-1.252948679E-3
1.773077104E1,3.407538012E-3
1.774071004E1,-3.493163176E-3
1.775064804E1,-4.244055301E-3
1.776058704E1,5.614569560E-3
1.777052604E1,5.361969844E-3
1.778046404E1,7.804936543E-4
1.779040304E1,-6.010572240E-4
1.780034204E1,-3.975521922E-3
1.781028104E1,2.613193765E-3
1.782021904E1,-4.911807328E-3
1.783015804E1,-1.523674764E-3
1.784009704E1,5.770909488E-3
1.785003504E1,4.395534731E-3
1.785997404E1,-9.361063354E-3
1.786991304E1,5.246852785E-3
1.787985104E1,7.778624073E-4
1.788979004E1,1.120765060E-3
1.789972904E1,3.531096987E-3
1.790966704E1,-7.716972493E-3
1.791960604E1,-6.577094346E-3
1.792954504E1,4.480282813E-3
1.793948304E1,9.794451669E-4
1.794942204E1,-2.997063473E-4
1.795936104E1,1.463740803E-3
1.796929904E1,-2.884504572E-3
1.797923804E1,-5.585077666E-3
1.798917704E1,-3.121134080E-3
1.799911504E1,8.818003200E-3
1.800905404E1,2.391547747E-3
1.801899304E1,4.076276757E-3
1.802893104E1,-2.437521480E-3
1.803887004E1,-3.955385573E-3
1.804880904E1,2.200380340E-3
1.805874704E1,4.865468144E-3
1.806868604E1,4.685812443E-4
1.807862504E1,-4.813062474E-3
1.808856304E1,5.324620754E-5
1.809850204E1,1.854919530E-3
1.810844104E1,-3.179715872E-3
1.811838004E1,-4.226440564E-3
1.812831804E1,2.999292724E-3
1.813825704E1,-6.772683710E-3
1.814819604E1,-5.079914778E-3
1.815813404E1,-7.952432558E-3
1.816807304E1,-7.852518260E-3
1.817801204E1,-7.914206386E-4
1.818795004E1,-7.869292460E-3
1.819788904E1,-1.553495564E-3
1.820782804E1,2.589914538E-3
1.821776604E1,3.289058805E-7
1.822770504E1,-6.739646941E-3
1.823764404E1,3.677533194E-3
1.824758204E1,-1.350414455E-3
1.825752104E1,1.581891105E-3
1.826746004E1,6.031220220E-3
1.827739804E1,5.542429537E-4
1.828733704E1,1.451680921E-3
1.829727542E1,4.265799634E-3
1.830721342E1,7.560449839E-4
1.831715242E1,4.221506976E-3
1.832709142E1,-1.591648646E-3
1.833702942E1,1.100007445E-4
1.834696842E1,1.243520044E-3
1.835690742E1,1.155629084E-3
1.836684642E1,-2.279135026E-3
1.837678442E1,-1.057359315E-3
1.838672342E1,-1.021822862E-2
1.839666242E1,-3.829414621E-3
1.840660042E1,-2.816201784E-3
1.841653942E1,-8.596905358E-3
1.842647842E1,8.032612503E-4
1.843641642E1,-2.820039019E-3
1.844635542E1,-5.349507965E-3
1.845629442E1,1.975189447E-3
1.846623242E1,5.359557867E-3
1.847617142E1,6.527648829E-3
1.848611042E1,1.196603447E-2
1.849604842E1,5.123951621E-3
1.850598742E1,6.474950798E-3
1.851592642E1,-1.280722953E-3
1.852586442E1,1.614160426E-3
1.853580342E1,-2.090379596E-3
1.854574242E1,1.749450378E-3
1.855568042E1,3.084515892E-3
1.856561942E1,-1.669928245E-3
1.857555842E1,-2.377733700E-3
1.858549642E1,6.776557490E-4
1.859543542E1,2.203450128E-3
1.860537442E1,-5.093363374E-3
1.861531242E1,-8.588682711E-3
1.862525142E1,-1.748975292E-3
1.863519042E1,5.617420077E-3
1.864512842E1,5.601596050E-3
1.865506742E1,-4.097801819E-4
1.866500642E1,-3.836869821E-3
1.867494542E1,-1.179346852E-3
1.868488342E1,3.621875010E-3
1.869482242E1,-5.973661691E-4
1.870476142E1,-3.465827443E-3
1.871469942E1,1.315696612E-3
1.872463842E1,3.856567629E-3
1.873457742E1,2.526472248E-3
1.874451542E1,-3.867677338E-3
1.875445442E1,5.490864404E-3
1.876439342E1,-1.416232176E-3
1.877433142E1,2.473335676E-3
1.878427042E1,1.381660514E-3
1.879420942E1,4.709457122E-3
1.880414742E1,6.432997026E-3
1.881408642E1,3.980967142E-3
1.882402542E1,1.045379832E-2
1.883396342E1,3.666094579E-3
1.884390242E1,2.686905228E-3
1.885384142E1,6.079642475E-4
1.886377942E1,-3.691639602E-3
1.887371842E1,-6.762524173E-3
1.888365742E1,2.413511351E-3
1.889359642E1,4.838205501E-3
1.890353442E1,1.421604306E-5
1.891347342E1,-1.309374310E-3
1.892341242E1,7.091722414E-3
1.893335042E1,2.569851279E-3
1.894328942E1,2.083436027E-3
1.895322842E1,2.388624139E-3
1.896316642E1,2.091402858E-3
1.897310542E1,-2.353540845E-3
1.898304442E1,4.865979776E-3
1.899298242E1,3.363793530E-3
1.900292142E1,-1.114990935E-3
1.901286042E1,-2.635084279E-3
1.902279842E1,2.382265292E-3
1.903273742E1,-1.629253551E-3
1.904267642E1,8.203570470E-3
1.905261442E1,1.529558524E-3
1.906255342E1,-2.514814362E-3
1.907249242E1,5.221563578E-3
1.908243142E1,8.117835671E-3
1.909236942E1,9.597656317E-3
1.910230842E1,7.323637605E-5
1.911224742E1,-1.106972940E-2
1.912218542E1,2.112306654E-3
1.913212442E1,-4.434053265E-3
1.914206342E1,-3.412910141E-3
1.915200142E1,-1.935391836E-3
1.916194042E1,-5.955316052E-3
1.917187942E1,-3.122011162E-3
1.918181742E1,-5.586064383E-3
1.919175642E1,8.147364110E-4
1.920169542E1,-7.648523524E-4
1.921163342E1,-3.367155679E-3
1.922157242E1,1.650376618E-4
1.923151142E1,-2.138436399E-3
1.924144942E1,1.325929239E-3
1.925138842E1,7.167370766E-3
1.926132742E1,7.869255915E-4
1.927126542E1,3.002435602E-3
1.928120442E1,-2.084240019E-3
1.929114367E1,2.011661455E-3
1.930108267E1,5.679400563E-3
1.931102067E1,-1.822138578E-3
1.932095967E1,-4.126928262E-3
1.933089867E1,-3.788630292E-4
1.934083667E1,-5.804092437E-4
1.935077567E1,-4.883740693E-3
1.936071467E1,-7.413538545E-3
1.937065267E1,-3.163818754E-3
1.938059167E1,-4.431093112E-3
1.939053067E1,3.262417428E-3
1.940046867E1,-1.526561826E-3
1.941040767E1,4.358002916E-4
1.942034667E1,1.849364676E-3
1.943028467E1,4.162157737E-3
1.944022367E1,-2.857972831E-3
1.945016267E1,-4.346673936E-4
1.946010067E1,-1.119522527E-3
1.947003967E1,-3.626552783E-3
1.947997867E1,9.247481190E-3
1.948991767E1,2.735875659E-3
1.949985567E1,1.067029148E-2
1.950979467E1,-1.048405766E-3
1.951973367E1,-7.224527299E-3
1.952967167E1,-1.502368972E-4
1.953961067E1,4.304720163E-3
1.954954967E1,6.409644708E-3
1.955948767E1,8.119589835E-4
1.956942667E1,5.554854870E-6
1.957936567E1,7.943113558E-3
1.958930367E1,4.868537933E-4
1.959924267E1,-1.270468399E-2
1.960918167E1,-2.264845893E-3
1.961911967E1,5.855840296E-3
1.962905867E1,-1.885398142E-3
1.963899767E1,-5.316105746E-3
1.964893567E1,1.399311796E-3
1.965887467E1,-5.533329807E-3
1.966881367E1,-5.136815496E-3
1.967875267E1,-3.613579273E-4
1.968869067E1,9.653899223E-3
1.969862967E1,2.626240365E-3
1.970856867E1,-9.611653090E-3
1.971850667E1,-5.084190555E-3
1.972844567E1,-3.521229811E-3
1.973838467E1,5.342564397E-3
1.974832267E1,-1.773862503E-3
1.975826167E1,-6.927488744E-4
1.976820067E1,-1.620519273E-3
1.977813867E1,-3.907548040E-3
1.978807767E1,-4.024711624E-4
1.979801667E1,1.154335387E-2
1.980795467E1,-3.284892663E-3
1.981789367E1,-7.137403786E-3
1.982783267E1,-1.221337169E-4
1.983777067E1,-4.096340016E-3
1.984770967E1,1.459355392E-3
1.985764867E1,-5.100562759E-3
1.986758767E1,1.181137562E-4
1.987752567E1,-7.415292710E-3
1.988746467E1,-2.071705051E-3
1.989740367E1,-3.955129758E-3
1.990734167E1,8.232148737E-4
1.991728067E1,7.419385761E-3
1.992721967E1,1.027830876E-3
1.993715767E1,3.678994998E-3
1.994709667E1,-4.015209898E-4
1.995703567E1,3.733410649E-3
1.996697367E1,-5.941611640E-3
1.997691267E1,1.996824145E-4
1.998685167E1,-6.044193730E-4
1.999678967E1,1.702270657E-4
2.000672867E1,-2.887903266E-3
2.001666767E1,-5.550067462E-3
2.002660667E1,2.087931074E-3
2.003654467E1,5.955462232E-3
2.004648367E1,4.922441952E-3
2.005642267E1,-3.431255780E-3
2.006636067E1,-7.133603096E-5
2.007629967E1,-5.301962793E-4
2.008623867E1,-4.861338548E-3
2.009617667E1,1.139549240E-3
2.010611567E1,2.720672898E-3
2.011605467E1,9.433386102E-4
2.012599267E1,-3.564937748E-3
2.013593167E1,-2.759520337E-3
2.014587067E1,-5.451943874E-3
2.015580867E1,-4.581768550E-3
2.016574767E1,-3.818378001E-3
2.017568667E1,-2.862431332E-3
2.018562467E1,-3.981953859E-3
2.019556367E1,1.270965412E-3
2.020550267E1,-3.414116129E-3
2.021544067E1,-1.095238309E-2
2.022537967E1,-1.114406213E-3
2.023531867E1,3.879298680E-3
2.024525767E1,4.789892882E-3
2.025519567E1,7.207606919E-3
2.026513467E1,2.563309707E-3
2.027507367E1,1.526086740E-3
2.028501167E1,2.385554351E-3
2.029495079E1,-9.695049003E-4
2.030488979E1,2.423049621E-3
2.031482779E1,6.572051123E-3
2.032476679E1,1.033568457E-3
2.033470579E1,3.246593401E-3
2.034464379E1,-3.077791594E-3
2.035458279E1,-2.496834174E-3
2.036452179E1,-3.526419215E-3
2.037446079E1,-4.540034048E-3
2.038439879E1,3.884012997E-4
2.039433779E1,-3.829926252E-5
2.040427679E1,9.408900887E-3
2.041421479E1,4.564263448E-3
2.042415379E1,-8.526300229E-3
2.043409279E1,-2.200087979E-3
2.044403079E1,2.525046989E-3
2.045396979E1,-1.745028421E-4
2.046390879E1,-1.449342035E-3
2.047384679E1,-5.908794142E-3
2.048378579E1,5.469777882E-3
2.049372479E1,-1.200725734E-3
2.050366279E1,2.184812129E-3
2.051360179E1,4.201553352E-3
2.052354079E1,2.104303278E-3
2.053347979E1,-9.380761161E-4
2.054341779E1,7.303903252E-4
2.055335679E1,-4.669367149E-4
2.056329579E1,-4.135991447E-3
2.057323379E1,3.756178245E-3
2.058317279E1,-5.882372037E-3
2.059311179E1,-8.796368502E-3
2.060304979E1,1.451936737E-3
2.061298879E1,-4.348537736E-3
2.062292779E1,-2.458754182E-3
2.063286579E1,-3.338869773E-3
2.064280479E1,1.727267504E-3
2.065274379E1,7.975967601E-3
2.066268279E1,-2.000478655E-4
2.067262079E1,2.126924694E-5
2.068255979E1,4.461315908E-3
2.069249879E1,-5.927103236E-3
2.070243679E1,-3.448285796E-3
2.071237579E1,4.431093112E-3
2.072231479E1,8.252175450E-3
2.073225279E1,-7.327292114E-5
2.074219179E1,-3.942594789E-3
2.075213079E1,-4.601612538E-3
2.076206879E1,-3.288949169E-3
2.077200779E1,-3.708084896E-3
2.078194679E1,-1.853750087E-3
2.079188479E1,6.548881531E-4
2.080182379E1,1.500724442E-3
2.081176279E1,-7.803474739E-4
2.082170179E1,-7.443066984E-3
2.083163979E1,-4.391332045E-3
2.084157879E1,-4.048173577E-3
2.085151779E1,4.062426165E-3
2.086145579E1,4.779002443E-4
2.087139479E1,-7.530117407E-3
2.088133379E1,-3.646981493E-3
2.089127179E1,9.549234062E-4
2.090121079E1,5.742331222E-4
2.091114979E1,1.978368871E-3
2.092108779E1,2.660921663E-3
2.093102679E1,-5.193350762E-3
2.094096579E1,-3.825540841E-3
2.095090479E1,-3.575645462E-3
2.096084279E1,-4.030595385E-3
2.097078179E1,3.900531381E-3
2.098072079E1,8.742793389E-3
2.099065879E1,5.146280676E-4
2.100059779E1,-8.011416346E-4
2.101053679E1,6.209560297E-3
2.102047479E1,1.996751055E-3
2.103041379E1,-6.150539964E-4
2.104035279E1,-9.029855132E-3
2.105029079E1,-2.155174054E-3
2.106022979E1,6.026798263E-3
2.107016879E1,3.302653581E-3
2.108010779E1,5.385285616E-3
2.109004579E1,7.037818395E-3
2.109998479E1,-3.329075687E-3
2.110992379E1,-1.222214252E-3
2.111986179E1,6.608742401E-3
2.112980079E1,-3.412837051E-3
2.113973979E1,-5.120918378E-3
2.114967779E1,3.569578975E-3
2.115961679E1,-4.891013168E-3
2.116955579E1,-1.215526499E-3
2.117949379E1,2.381753661E-3
2.118943279E1,5.183775946E-3
2.119937179E1,-4.523552209E-3
2.120931079E1,-4.848072678E-3
2.121924879E1,-6.055888161E-4
2.122918779E1,-9.817109630E-4
2.123912679E1,6.875338890E-3
2.124906479E1,-3.851853311E-3
2.125900379E1,-6.451781206E-3
2.126894279E1,-1.985385530E-3
2.127888079E1,2.841125540E-3
2.128881979E1,2.125901431E-3
2.129875954E1,-4.101310149E-3
2.130869754E1,1.364922859E-3
2.131863654E1,-6.817378365E-3
2.132857554E1,5.270680189E-3
2.133851354E1,2.477026731E-4
2.134845254E1,8.564343676E-4
2.135839154E1,5.520210117E-3
2.136833054E1,1.413418204E-3
2.137826854E1,-4.322919622E-3
2.138820754E1,-1.209050708E-2
2.139814654E1,-5.983419232E-3
2.140808454E1,-5.098479688E-3
2.141802354E1,5.439993627E-3
2.142796254E1,-2.491644770E-3
2.143790054E1,-8.488366418E-3
2.144783954E1,-4.541715123E-3
2.145777854E1,4.477176480E-3
2.146771654E1,7.415511981E-3
2.147765554E1,4.623795412E-3
2.148759454E1,1.743274257E-3
2.149753354E1,2.183752321E-3
2.150747154E1,-1.740241013E-3
2.151741054E1,-5.500585400E-3
2.152734954E1,2.454259135E-3
2.153728754E1,4.833856635E-3
2.154722654E1,5.683639795E-3
2.155716554E1,-6.712969020E-4
2.156710354E1,2.705872133E-3
2.157704254E1,-2.094143741E-3
2.158698154E1,-6.441694759E-3
2.159691954E1,6.170639768E-3
2.160685854E1,-2.037060298E-3
2.161679754E1,-2.839663737E-3
2.162673654E1,4.053436071E-3
2.163667454E1,-1.057907492E-3
2.164661354E1,3.434873745E-3
2.165655254E1,1.258024793E-2
2.166649054E1,-1.110313162E-3
2.167642954E1,8.644633256E-3
2.168636854E1,-7.192184888E-3
2.169630654E1,-6.092213988E-3
2.170624554E1,-9.278800339E-4
2.171618454E1,6.465997249E-3
2.172612254E1,-5.424498506E-3
2.173606154E1,2.198553085E-4
2.174600054E1,-4.730141647E-3
2.175593954E1,4.788065627E-3
2.176587754E1,3.238005303E-3
2.177581654E1,-4.817228615E-3
2.178575554E1,-1.127098326E-2
2.179569354E1,-1.054691523E-4
2.180563254E1,-2.726958655E-3
2.181557154E1,2.929857038E-3
2.182550954E1,4.676566534E-3
2.183544854E1,7.303903252E-4
2.184538754E1,5.765756629E-3
2.185532654E1,-4.500748068E-3
2.186526454E1,-8.894747905E-3
2.187520354E1,-4.211822525E-4
2.188514254E1,-5.851272158E-3
2.189508054E1,-8.193045482E-4
2.190501954E1,7.071988061E-3
2.191495854E1,1.252510138E-3
2.192489654E1,8.421817794E-4
2.193483554E1,-4.155981615E-3
2.194477454E1,-7.728995830E-3
2.195471254E1,-3.713237755E-3
2.196465154E1,-5.055648834E-4
2.197459054E1,-1.884886511E-3
2.198452954E1,-4.781743325E-3
2.199446754E1,4.447538406E-5
2.200440654E1,1.687652618E-3
2.201434554E1,-3.115908131E-3
2.202428354E1,-9.080725908E-3
2.203422254E1,5.211806037E-3
2.204416154E1,-2.097250074E-3
2.205409954E1,5.004449151E-3
2.206403854E1,7.740251720E-5
2.207397754E1,-6.755361333E-3
2.208391554E1,-5.134001523E-3
2.209385454E1,4.272670113E-3
2.210379354E1,1.581635289E-3
2.211373254E1,3.101107366E-3
2.212367054E1,-7.868159562E-5
2.213360954E1,-6.212337725E-3
2.214354854E1,7.295095883E-3
2.215348654E1,3.440245874E-3
2.216342554E1,-3.062881194E-3
2.217336454E1,-1.604841426E-3
2.218330254E1,5.747447535E-4
2.219324154E1,-8.555645943E-3
2.220318054E1,-1.075412594E-3
2.221311954E1,5.420734361E-4
2.222305754E1,2.447498292E-3
2.223299654E1,-2.725021765E-3
2.224293554E1,5.507273152E-3
2.225287354E1,8.548410013E-3
2.226281254E1,1.091645926E-2
2.227275154E1,-8.005203679E-4
2.228268954E1,8.922777995E-3
2.229262767E1,-7.704072073E-4
2.230256667E1,-3.038103618E-3
2.231250467E1,3.359956294E-4
2.232244367E1,-8.369192854E-4
2.233238267E1,4.695423804E-3
2.234232167E1,2.016814314E-3
2.235225967E1,8.239640482E-3
2.236219867E1,2.244855724E-3
2.237213767E1,6.552682221E-3
2.238207567E1,6.811202243E-3
2.239201467E1,1.510299258E-3
2.240195367E1,2.308115289E-3
2.241189167E1,4.466870762E-3
2.242183067E1,4.861777090E-3
2.243176967E1,3.983196393E-3
2.244170867E1,7.381049953E-3
2.245164667E1,-3.331085667E-4
2.246158567E1,3.668214194E-3
2.247152467E1,-1.603269987E-3
2.248146267E1,-5.881823860E-3
2.249140167E1,3.310583867E-3
2.250134067E1,5.291474350E-3
2.251127867E1,-5.975196585E-3
2.252121767E1,4.129596055E-3
2.253115667E1,4.743005522E-3
2.254109467E1,-8.045037836E-4
2.255103367E1,-1.122994311E-3
2.256097267E1,3.733556829E-3
2.257091167E1,-3.147008009E-3
2.258084967E1,5.674284250E-3
2.259078867E1,4.911039881E-3
2.260072767E1,1.173426546E-3
2.261066567E1,-9.906243123E-3
2.262060467E1,-3.829560801E-4
2.263054367E1,-5.159473456E-3
2.264048167E1,-1.348331384E-3
2.265042067E1,-1.599761657E-3
2.266035967E1,-3.857554346E-3
2.267029867E1,-4.970571846E-3
2.268023667E1,2.348351441E-3
2.269017567E1,7.106998265E-3
2.270011467E1,3.281493969E-3
2.271005267E1,1.586751603E-3
2.271999167E1,5.187686272E-3
2.272993067E1,-4.012651742E-5
2.273986867E1,-5.933060087E-3
2.274980767E1,3.785925955E-3
2.275974667E1,9.641364254E-3
2.276968467E1,7.379113063E-3
2.277962367E1,-1.830251589E-3
2.278956267E1,-4.151998200E-3
2.279950167E1,-4.601027817E-3
2.280943967E1,7.843235806E-3
2.281937867E1,6.420827508E-3
2.282931767E1,5.864172578E-3
2.283925567E1,1.651107520E-4
2.284919467E1,6.222424172E-3
2.285913367E1,1.994010173E-3
2.286907167E1,-7.321042903E-3
2.287901067E1,6.001618691E-3
2.288894967E1,3.460089862E-4
2.289888867E1,-2.537399232E-3
2.290882667E1,7.893192954E-3
2.291876567E1,-3.104761876E-3
2.292870467E1,-5.792580731E-3
2.293864267E1,6.582356840E-3
2.294858167E1,6.025994271E-3
2.295852067E1,2.960043289E-3
2.296845867E1,-2.767962255E-3
2.297839767E1,-1.898298562E-3
2.298833667E1,-1.870049201E-3
2.299827567E1,6.637320668E-4
2.300821367E1,1.667918265E-3
2.301815267E1,-1.205147691E-3
2.302809167E1,-8.741587400E-4
2.303802967E1,-3.488302678E-3
2.304796867E1,-2.019482106E-4
2.305790767E1,6.229477376E-3
2.306784567E1,1.859853119E-3
2.307778467E1,4.499834441E-3
2.308772367E1,-3.720290959E-5
2.309766267E1,8.447253183E-3
2.310760067E1,1.574728265E-3
2.311753967E1,8.881591670E-3
2.312747867E1,1.888285205E-3
2.313741667E1,3.214141354E-4
2.314735567E1,-6.589008048E-3
2.315729467E1,5.213523656E-4
2.316723267E1,-8.171483874E-3
2.317717167E1,9.304126091E-3
2.318711067E1,4.575226977E-3
2.319704967E1,7.237281539E-3
2.320698767E1,3.404248953E-3
2.321692667E1,-4.041120373E-3
2.322686567E1,1.023555100E-3
2.323680367E1,3.895341977E-4
2.324674267E1,-8.781604283E-3
2.325668167E1,2.368560880E-3
2.326661967E1,-8.968167007E-4
2.327655867E1,-2.887610905E-3
2.328649767E1,-5.338836797E-3
2.329643942E1,1.715426892E-4
2.330637742E1,-2.306616940E-3
2.331631642E1,-1.315915883E-3
2.332625542E1,-2.753526941E-3
2.333619342E1,-4.912282415E-3
2.334613242E1,6.034253463E-3
2.335607142E1,4.777175188E-3
2.336600942E1,1.777224652E-3
2.337594842E1,-2.707845569E-3
2.338588742E1,1.466189325E-4
2.339582642E1,5.902033299E-5
2.340576442E1,3.056778163E-3
2.341570342E1,9.374292679E-3
2.342564242E1,5.114888437E-3
2.343558042E1,1.648658998E-3
2.344551942E1,1.058565304E-3
2.345545842E1,-9.168799594E-4
2.346539742E1,9.132619947E-5
2.347533542E1,7.433638349E-4
2.348527442E1,2.721001804E-3
2.349521342E1,4.788577259E-3
2.350515142E1,-2.562578805E-3
2.351509042E1,6.712347753E-3
2.352502942E1,2.817882858E-3
2.353496742E1,5.339677334E-3
2.354490642E1,8.914299533E-3
2.355484542E1,2.967023402E-3
2.356478342E1,6.709314510E-4
2.357472242E1,-3.382870071E-3
2.358466142E1,-6.624310613E-3
2.359460042E1,5.540309921E-3
2.360453842E1,1.117245767E-2
2.361447742E1,1.717436872E-3
2.362441642E1,3.070336394E-3
2.363435442E1,5.491631851E-3
2.364429342E1,7.849229202E-3
2.365423242E1,2.060704976E-3
2.366417042E1,-3.339746855E-3
2.367410942E1,-6.007648632E-4
2.368404842E1,-2.192705870E-7
2.369398742E1,-2.623682208E-3
2.370392542E1,4.242264591E-3
2.371386442E1,1.125947155E-2
2.372380342E1,5.030871257E-3
2.373374142E1,-9.379335903E-3
2.374368042E1,5.878352076E-3
2.375361942E1,4.197277576E-3
2.376355842E1,8.323328756E-3
2.377349642E1,-5.741600320E-4
2.378343542E1,-8.178865984E-3
2.379337442E1,-1.717875414E-3
2.380331242E1,-2.193875313E-3
2.381325142E1,3.479568399E-3
2.382319042E1,8.982163779E-3
2.383312842E1,-2.510977127E-3
2.384306742E1,-5.364199094E-3
2.385300642E1,-6.081579365E-3
2.386294542E1,1.789942347E-3
2.387288342E1,-1.993206181E-3
2.388282242E1,4.727766216E-3
2.389276142E1,4.241533689E-3
2.390269942E1,3.623811901E-3
2.391263842E1,2.790949121E-4
2.392257742E1,4.579393119E-3
2.393251542E1,1.198971570E-3
2.394245442E1,6.875704341E-3
2.395239342E1,1.498422101E-3
2.396233242E1,-4.059831463E-3
2.397227042E1,9.211922809E-4
2.398220942E1,1.019410886E-2
2.399214842E1,2.837580666E-3
2.400208642E1,4.978173226E-3
2.401202542E1,4.703756087E-3
2.402196442E1,-8.885575086E-4
2.403190242E1,1.443092823E-3
2.404184142E1,6.720606945E-3
2.405178042E1,2.832647078E-3
2.406171942E1,-5.912521742E-3
2.407165742E1,-9.442887828E-4
2.408159642E1,-4.093928039E-3
2.409153542E1,3.661087900E-3
2.410147342E1,4.099957980E-3
2.411141242E1,6.410814151E-3
2.412135142E1,1.469222568E-3
2.413129042E1,2.285786234E-3
2.414122842E1,1.659512892E-3
2.415116742E1,-2.145343423E-3
2.416110642E1,4.112127498E-3
2.417104442E1,-3.447664529E-4
2.418098342E1,-8.213145286E-4
2.419092242E1,1.147516072E-2
2.420086042E1,1.315904919E-2
2.421079942E1,-7.027622312E-5
2.422073842E1,-1.067920849E-3
2.423067742E1,-5.340335146E-4
2.424061542E1,3.335799985E-3
2.425055442E1,6.682636589E-4
2.426049342E1,9.371661432E-3
2.427043142E1,-1.349720098E-3
2.428037042E1,-3.686852194E-3
2.429030942E1,8.840259165E-4
2.430024592E1,-1.710347123E-3
2.431018392E1,-2.729041725E-3
2.432012292E1,9.410362691E-4
2.433006192E1,-3.645263873E-3
2.433999992E1,4.812002666E-3
2.434993892E1,-2.736021839E-3
2.435987792E1,-2.856182121E-3
2.436981592E1,3.346507698E-3
2.437975492E1,6.718487330E-3
2.438969392E1,-6.587984785E-4
2.439963292E1,6.779810004E-3
2.440957092E1,3.954983577E-3
2.441950992E1,-1.171197295E-3
2.442944892E1,8.658849299E-3
2.443938692E1,3.751500472E-3
2.444932592E1,1.280664481E-2
2.445926492E1,2.229872234E-3
2.446920392E1,1.408813521E-4
2.447914192E1,5.387478322E-3
2.448908092E1,6.649599820E-3
2.449901992E1,6.101240627E-3
2.450895792E1,-3.340112306E-3
2.451889692E1,4.270331226E-3
2.452883592E1,4.895873666E-3
2.453877392E1,3.029880971E-3
2.454871292E1,6.418159716E-3
2.455865192E1,3.165317103E-3
2.456859092E1,6.044705361E-3
2.457852892E1,1.554215502E-2
2.458846792E1,8.373468630E-3
2.459840692E1,8.449811339E-3
2.460834492E1,-5.118542947E-3
2.461828392E1,6.877093054E-3
2.462822292E1,6.923286058E-3
2.463816192E1,8.060496412E-3
2.464809992E1,2.271387465E-3
2.465803892E1,5.586283654E-4
2.466797792E1,-2.419322021E-3
2.467791592E1,2.422209084E-3
2.468785492E1,6.807291918E-3
2.469779392E1,9.024446458E-3
2.470773192E1,5.290853083E-3
2.471767092E1,1.260557368E-2
2.472760992E1,9.876093417E-3
2.473754892E1,4.728204757E-3
2.474748692E1,6.276401281E-3
2.475742592E1,4.996226504E-3
2.476736492E1,1.025524881E-2
2.477730292E1,3.626698963E-3
2.478724192E1,8.911558650E-3
2.479718092E1,5.707394108E-3
2.480711992E1,-1.781317703E-3
2.481705792E1,1.254805170E-2
2.482699692E1,-1.542203128E-5
2.483693592E1,2.913265564E-3
2.484687392E1,1.087150879E-2
2.485681292E1,9.491967894E-3
2.486675192E1,-1.441777200E-3
2.487668992E1,7.616729289E-3
2.488662892E1,-1.191808730E-3
2.489656792E1,-4.403830469E-3
2.490650692E1,7.739009187E-3
2.491644492E1,6.104675867E-3
2.492638392E1,2.891813591E-3
2.493632292E1,3.335507624E-3
2.494626092E1,1.896690577E-5
2.495619992E1,-1.635648943E-3
2.496613892E1,6.818657443E-3
2.497607692E1,3.699240983E-3
2.498601592E1,8.312767223E-3
2.499595492E1,-5.702131614E-4
2.500589392E1,-5.467512086E-4
2.501583192E1,7.784471288E-3
2.502577092E1,3.164476566E-3
2.503570992E1,1.229844868E-2
2.504564792E1,7.697201595E-3
2.505558692E1,-5.433378965E-3
2.506552592E1,-6.870295666E-3
2.507546492E1,-1.825208366E-3
2.508540292E1,4.531409405E-3
2.509534192E1,5.596881732E-4
2.510528092E1,2.040714808E-3
2.511521892E1,3.914418519E-3
2.512515792E1,-2.412305363E-3
2.513509692E1,6.271979325E-3
2.514503592E1,-3.181981668E-3
2.515497392E1,-2.287101857E-3
2.516491292E1,2.498405613E-3
2.517485192E1,-3.733264469E-3
2.518478992E1,1.333238259E-3
2.519472892E1,7.499748431E-3
2.520466792E1,5.712875873E-3
2.521460592E1,9.235859849E-3
2.522454492E1,2.437667660E-3
2.523448392E1,-3.211546652E-3
2.524442292E1,6.372916885E-3
2.525436092E1,-5.603825301E-4
2.526429992E1,-3.943837322E-3
2.527423892E1,-1.303856000E-3
2.528417692E1,4.167712592E-3
2.529411829E1,6.484160163E-3
2.530405729E1,5.999389440E-3
2.531399629E1,3.609888218E-3
2.532393429E1,1.969269142E-3
2.533387329E1,3.427820541E-3
2.534381229E1,3.213300817E-3
2.535375029E1,8.322890215E-3
2.536368929E1,8.424229771E-3
2.537362829E1,-2.744902298E-4
2.538356729E1,-9.301458299E-4
2.539350529E1,3.830072433E-3
2.540344429E1,1.074517239E-2
2.541338329E1,1.520111617E-2
2.542332129E1,1.159440737E-2
2.543326029E1,1.849949397E-3
2.544319929E1,2.250593305E-3
2.545313729E1,7.696470693E-3
2.546307629E1,6.297524348E-3
2.547301529E1,3.825942837E-3
2.548295429E1,8.674344420E-4
2.549289229E1,-1.918142550E-3
2.550283129E1,5.587014556E-4
2.551277029E1,3.759576939E-3
2.552270829E1,6.870843843E-4
2.553264729E1,1.128837872E-2
2.554258629E1,7.752348147E-3
2.555252529E1,1.060904190E-4
2.556246329E1,-4.676054902E-3
2.557240229E1,4.338816740E-3
2.558234129E1,-1.247174554E-3
2.559227929E1,6.236932576E-3
2.560221829E1,3.885145895E-3
2.561215729E1,6.045216992E-3
2.562209629E1,9.390774518E-3
2.563203429E1,7.265092358E-3
2.564197329E1,2.363225296E-3
2.565191229E1,1.213651735E-2
2.566185029E1,3.963169679E-3
2.567178929E1,-1.845527440E-3
2.568172829E1,5.403192714E-3
2.569166729E1,7.731663622E-3
2.570160529E1,-1.163230464E-3
2.571154429E1,1.011531763E-3
2.572148329E1,5.987366103E-3
2.573142129E1,2.347291633E-3
2.574136029E1,3.965472020E-3
2.575129929E1,1.030663121E-2
2.576123729E1,7.100310512E-3
2.577117629E1,1.152617767E-2
2.578111529E1,9.453632087E-3
2.579105429E1,5.171642974E-3
2.580099229E1,8.665244691E-3
2.581093129E1,3.807268292E-4
2.582087029E1,7.206145115E-3
2.583080829E1,9.126516916E-3
2.584074729E1,1.706290618E-4
2.585068629E1,2.463578135E-3
2.586062529E1,8.057097718E-4
2.587056329E1,4.057675302E-3
2.588050229E1,1.105204158E-2
2.589044129E1,1.099528704E-2
2.590037929E1,5.063542575E-3
2.591031829E1,2.846095674E-3
2.592025729E1,2.961395457E-3
2.593019629E1,5.997050554E-3
2.594013429E1,-4.370793700E-4
2.595007329E1,3.747443967E-3
2.596001229E1,4.124699011E-3
2.596995029E1,2.394398265E-3
2.597988929E1,9.020134136E-3
2.598982829E1,6.453023739E-3
2.599976729E1,6.275195293E-3
2.600970529E1,5.070047602E-3
2.601964429E1,1.120618880E-2
2.602958329E1,-9.099729359E-6
2.603952129E1,6.001180150E-3
2.604946029E1,5.777560696E-3
2.605939929E1,5.376368612E-3
2.606933829E1,9.718364775E-3
2.607927629E1,8.800790459E-4
2.608921529E1,9.507207200E-3
2.609915429E1,2.097505890E-3
2.610909229E1,-2.956498414E-3
2.611903129E1,4.484193139E-3
2.612897029E1,-5.138606206E-4
2.613890929E1,1.844065636E-4
2.614884729E1,4.296826422E-3
2.615878629E1,1.395602468E-2
2.616872529E1,1.325823259E-2
2.617866329E1,9.227710292E-3
2.618860229E1,2.847959474E-4
2.619854129E1,3.993319385E-3
2.620847929E1,6.474658437E-3
2.621841829E1,3.002581783E-3
2.622835729E1,3.254706413E-4
2.623829629E1,9.187474139E-3
2.624823429E1,8.838724270E-3
2.625817329E1,1.371610612E-3
2.626811229E1,6.964033842E-3
2.627805029E1,1.703732461E-3
2.628798929E1,5.293411240E-3
2.629792642E1,-7.117157802E-4
2.630786542E1,1.225017261E-2
2.631780342E1,-2.568754926E-3
2.632774242E1,3.202081472E-3
2.633768142E1,7.107838802E-3
2.634761942E1,3.584891371E-3
2.635755842E1,4.362205602E-3
2.636749742E1,7.899588346E-4
2.637743642E1,-7.991937809E-3
2.638737442E1,3.814504221E-3
2.639731342E1,8.965718485E-3
2.640725242E1,1.304912154E-2
2.641719042E1,3.817866370E-3
2.642712942E1,7.781218775E-3
2.643706842E1,5.116057880E-3
2.644700742E1,3.718573339E-3
2.645694542E1,9.135580100E-3
2.646688442E1,4.887249023E-3
2.647682342E1,1.365324855E-3
2.648676142E1,1.552947387E-2
2.649670042E1,1.494084198E-2
2.650663942E1,9.407877624E-3
2.651657842E1,7.564835250E-3
2.652651642E1,1.450438388E-2
2.653645542E1,4.509920888E-3
2.654639442E1,2.994834222E-3
2.655633242E1,7.230703421E-3
2.656627142E1,-6.710557044E-3
2.657621042E1,3.698181175E-3
2.658614942E1,3.631632552E-3
2.659608742E1,3.228978664E-3
2.660602642E1,6.035349816E-3
2.661596542E1,-3.453511745E-4
2.662590342E1,6.189021952E-3
2.663584242E1,-5.018738285E-4
2.664578142E1,4.697872326E-4
2.665572042E1,4.615061134E-3
2.666565842E1,3.320779949E-3
2.667559742E1,8.827687651E-3
2.668553642E1,6.408657990E-3
2.669547442E1,3.844325021E-3
2.670541342E1,5.948080122E-3
2.671535242E1,4.457259402E-3
2.672529142E1,6.189021952E-3
2.673522942E1,7.542286925E-3
2.674516842E1,1.649426445E-3
2.675510742E1,5.921621472E-3
2.676504542E1,1.165284298E-2
2.677498442E1,6.776228584E-3
2.678492342E1,1.030451160E-2
2.679486242E1,4.266676717E-3
2.680480042E1,1.069726177E-2
2.681473942E1,5.878644437E-3
2.682467842E1,1.183366813E-3
2.683461642E1,4.535356276E-3
2.684455542E1,1.796191558E-3
2.685449442E1,3.377059400E-3
2.686443342E1,1.266689636E-3
2.687437142E1,-1.608386301E-3
2.688431042E1,1.714038178E-3
2.689424942E1,-1.103223413E-3
2.690418742E1,1.578748226E-5
2.691412642E1,8.858641349E-3
2.692406542E1,3.016944006E-3
2.693400442E1,-9.212288260E-4
2.694394242E1,6.794245318E-3
2.695388142E1,3.037628531E-4
2.696382042E1,2.068233266E-3
2.697375842E1,6.750025749E-3
2.698369742E1,6.204261258E-3
2.699363642E1,8.932535537E-3
2.700357542E1,1.454505857E-2
2.701351342E1,5.512828007E-3
2.702345242E1,-7.723806426E-4
2.703339142E1,9.953861386E-3
2.704332942E1,1.456168659E-2
2.705326842E1,9.710909575E-3
2.706320742E1,7.758853175E-3
2.707314642E1,9.831618033E-3
2.708308442E1,7.527413070E-3
2.709302342E1,8.866060004E-3
2.710296242E1,1.034197032E-2
2.711290042E1,-7.080612704E-4
2.712283942E1,-6.461173296E-4
2.713277842E1,1.324982721E-2
2.714271742E1,8.939040564E-3
2.715265542E1,1.227454819E-2
2.716259442E1,1.472961131E-2
2.717253342E1,1.124134518E-2
2.718247142E1,1.780732982E-3
2.719241042E1,4.288640320E-3
2.720234942E1,1.333596401E-2
2.721228842E1,9.199899472E-3
2.722222642E1,-3.919461742E-3
2.723216542E1,9.024811909E-3
2.724210442E1,1.604972988E-2
2.725204242E1,1.061507184E-2
2.726198142E1,6.061552651E-3
2.727192042E1,1.122698296E-2
2.728185942E1,1.031430569E-2
2.729179742E1,2.884212211E-3
2.730173571E1,7.170148194E-3
2.731167471E1,1.390899114E-2
2.732161371E1,5.850212350E-3
2.733155171E1,2.564917691E-3
2.734149071E1,7.138390504E-3
2.735142971E1,9.626088403E-3
2.736136771E1,8.130772635E-3
2.737130671E1,1.060940735E-3
2.738124571E1,1.259007856E-2
2.739118471E1,-7.902511954E-4
2.740112271E1,7.990585640E-4
2.741106171E1,1.170682009E-2
2.742100071E1,1.558242772E-2
2.743093871E1,6.402774230E-3
2.744087771E1,5.549628921E-3
2.745081671E1,1.509794936E-2
2.746075571E1,7.640520148E-3
2.747069371E1,2.821135372E-3
2.748063271E1,4.736208133E-3
2.749057171E1,5.625386909E-3
2.750050971E1,1.783185158E-2
2.751044871E1,1.385483131E-2
2.752038771E1,8.946568854E-3
2.753032671E1,9.624480419E-3
2.754026471E1,3.647346944E-3
2.755020371E1,7.046479583E-3
2.756014271E1,6.343936622E-3
2.757008071E1,9.448990859E-3
2.758001971E1,7.638144717E-3
2.758995871E1,5.997671820E-3
2.759989771E1,4.667649530E-3
2.760983571E1,1.461701587E-2
2.761977471E1,1.306253359E-2
2.762971371E1,1.125190672E-2
2.763965171E1,9.501506165E-3
2.764959071E1,1.069802921E-2
2.765952971E1,4.243141674E-3
2.766946871E1,8.189829513E-3
2.767940671E1,1.493488513E-2
2.768934571E1,5.612596124E-3
2.769928471E1,3.213300817E-3
2.770922371E1,5.415435322E-3
2.771916171E1,-9.414748102E-4
2.772910071E1,3.512860984E-3
2.773903971E1,7.533443011E-3
2.774897771E1,-2.958691120E-4
2.775891671E1,8.151968792E-3
2.776885571E1,7.009459399E-3
2.777879371E1,-2.051568702E-3
2.778873271E1,1.169355422E-2
2.779867171E1,1.051219739E-2
2.780861071E1,8.099051490E-3
2.781854871E1,7.976442687E-3
2.782848771E1,1.026679706E-2
2.783842671E1,1.283675797E-2
2.784836571E1,6.485768147E-3
2.785830371E1,-2.833341435E-4
2.786824271E1,-1.394853294E-3
2.787818171E1,-1.503428780E-3
2.788811971E1,3.372600898E-3
2.789805871E1,9.163792916E-3
2.790799771E1,1.262048408E-2
2.791793671E1,-9.112154692E-4
2.792787471E1,1.205385234E-2
2.793781371E1,5.440322533E-3
2.794775271E1,1.844175272E-2
2.795769071E1,1.017561704E-2
2.796762971E1,4.453897253E-3
2.797756871E1,-3.512130082E-3
2.798750771E1,3.664084598E-3
2.799744571E1,-1.367517561E-4
2.800738471E1,6.013386212E-3
2.801732371E1,8.176600188E-3
2.802726171E1,3.645373508E-3
2.803720071E1,3.801713437E-3
2.804713971E1,4.654749110E-4
2.805707871E1,7.273168825E-3
2.806701671E1,1.064675644E-2
2.807695571E1,7.702281363E-3
2.808689471E1,8.430076987E-3
2.809683271E1,1.276607975E-2
2.810677171E1,9.289106056E-3
2.811671071E1,5.963429064E-3
2.812664971E1,5.717261285E-3
2.813658771E1,9.720886387E-3
2.814652671E1,1.097010747E-2
2.815646571E1,-3.583612293E-4
2.816640471E1,-2.600549161E-4
2.817634271E1,5.762138665E-3
2.818628171E1,9.204759970E-3
2.819622071E1,5.094240457E-3
2.820615871E1,1.641276889E-3
2.821609771E1,1.075986352E-2
2.822603671E1,1.999345757E-3
2.823597571E1,1.909042820E-3
2.824591371E1,6.171809211E-3
2.825585271E1,4.451668002E-3
2.826579171E1,5.007336214E-3
2.827572971E1,9.117855728E-3
2.828566871E1,1.298845667E-2
2.829560771E1,8.034366667E-3
2.830554679E1,1.195733674E-2
2.831548479E1,-1.183366813E-3
2.832542379E1,4.315683693E-3
2.833536279E1,8.011672162E-3
2.834530179E1,1.287476487E-2
2.835523979E1,4.963262826E-3
2.836517879E1,-4.677918702E-3
2.837511779E1,7.698005587E-3
2.838505579E1,2.075578831E-3
2.839499479E1,2.060047165E-3
2.840493379E1,1.399326414E-2
2.841487279E1,1.035720963E-2
2.842481079E1,1.158874288E-2
2.843474979E1,1.372253805E-2
2.844468879E1,1.091068514E-2
2.845462679E1,8.711730056E-3
2.846456579E1,1.152398497E-2
2.847450479E1,1.397608794E-2
2.848444379E1,5.548642203E-3
2.849438179E1,6.591054574E-3
2.850432079E1,3.588399701E-3
2.851425979E1,1.469167750E-2
2.852419779E1,1.863288358E-3
2.853413679E1,-2.009761110E-3
2.854407579E1,1.552750044E-2
2.855401479E1,1.023251776E-2
2.856395279E1,1.469529547E-2
2.857389179E1,4.092941321E-3
2.858383079E1,3.344570808E-3
2.859376879E1,9.469565749E-3
2.860370779E1,3.862524480E-3
2.861364679E1,-9.093151242E-4
2.862358579E1,9.762840159E-3
2.863352379E1,9.623786062E-3
2.864346279E1,6.958771348E-3
2.865340179E1,5.287052393E-3
2.866334079E1,3.361089192E-3
2.867327879E1,-1.043545268E-3
2.868321779E1,5.620855317E-3
2.869315679E1,6.631692722E-3
2.870309479E1,7.713902704E-3
2.871303379E1,-4.325185418E-3
2.872297279E1,7.267138883E-3
2.873291179E1,4.123639204E-3
2.874284979E1,8.569057994E-3
2.875278879E1,1.147815742E-2
2.876272779E1,5.872249044E-3
2.877266679E1,4.916010015E-3
2.878260479E1,4.028768130E-3
2.879254379E1,1.655931473E-2
2.880248279E1,1.894168966E-3
2.881242079E1,7.724062242E-3
2.882235979E1,1.238783799E-2
2.883229879E1,8.374309167E-3
2.884223779E1,5.597027913E-3
2.885217579E1,9.583294094E-3
2.886211479E1,-4.605084322E-3
2.887205379E1,1.159868315E-3
2.888199179E1,9.561001584E-3
2.889193079E1,1.010270957E-2
2.890186979E1,4.431239292E-3
2.891180879E1,6.239490733E-3
2.892174679E1,1.268177021E-2
2.893168579E1,6.276547462E-3
2.894162479E1,4.089359902E-3
2.895156379E1,4.914292395E-3
2.896150179E1,3.485707976E-3
2.897144079E1,3.679835536E-3
2.898137979E1,3.336713612E-3
2.899131779E1,1.076899979E-2
2.900125679E1,7.212686688E-3
2.901119579E1,-2.754038572E-3
2.902113379E1,5.442186333E-3
2.903107279E1,1.163168337E-2
2.904101179E1,1.657919526E-2
2.905095079E1,7.800258771E-3
2.906088879E1,-1.834673546E-3
2.907082779E1,1.691106129E-2
2.908076679E1,-1.843956001E-3
2.909070579E1,4.742566980E-3
2.910064379E1,5.077210441E-3
2.911058279E1,1.521774419E-3
2.912052179E1,-5.422269255E-3
2.913045979E1,1.240998432E-3
2.914039879E1,9.432947561E-3
2.915033779E1,1.032274760E-2
2.916027679E1,7.808298692E-3
2.917021479E1,9.229391366E-3
2.918015379E1,2.586333118E-3
2.919009279E1,1.192345943E-2
2.920003179E1,1.086705029E-3
2.920996979E1,3.898375221E-3
2.921990879E1,-1.088605374E-3
2.922984779E1,5.698221289E-3
2.923978579E1,1.470757462E-2
2.924972479E1,1.310116176E-2
2.925966379E1,8.154855855E-3
2.926960279E1,1.152975909E-2
2.927954079E1,4.492306150E-3
2.928947979E1,5.989376083E-3
2.929941942E1,9.526027925E-3
2.930935742E1,5.055977739E-3
2.931929642E1,2.488063350E-3
2.932923542E1,-4.347368293E-3
2.933917442E1,7.249524146E-3
2.934911242E1,7.708311304E-3
2.935905142E1,-2.727031745E-3
2.936899042E1,3.254669867E-3
2.937892942E1,9.094247594E-3
2.938886742E1,2.157103635E-2
2.939880642E1,1.678077802E-2
2.940874542E1,1.199190840E-2
2.941868342E1,7.686603516E-3
2.942862242E1,2.626423091E-3
2.943856142E1,-2.945388705E-3
2.944850042E1,4.448269308E-3
2.945843842E1,-5.435352400E-4
2.946837742E1,1.093199093E-2
2.947831642E1,5.885916911E-3
2.948825542E1,5.353856832E-4
2.949819342E1,4.691476934E-3
2.950813242E1,7.445478961E-3
2.951807142E1,2.425680868E-3
2.952800942E1,8.846873827E-3
2.953794842E1,2.301171720E-3
2.954788742E1,-4.928033352E-3
2.955782642E1,9.927658550E-3
2.956776442E1,9.279677421E-3
2.957770342E1,5.001635179E-3
2.958764242E1,6.003117040E-3
2.959758042E1,4.461133182E-3
2.960751942E1,1.163665351E-2
2.961745842E1,6.762706898E-3
2.962739742E1,1.603701219E-2
2.963733542E1,7.957877778E-3
2.964727442E1,-2.637459710E-4
2.965721342E1,1.087881781E-2
2.966715242E1,1.754859053E-3
2.967709042E1,2.540322840E-3
2.968702942E1,5.758155249E-3
2.969696842E1,7.514329925E-3
2.970690642E1,5.399538204E-3
2.971684542E1,1.466532849E-2
2.972678442E1,8.559702449E-3
2.973672342E1,3.335434534E-3
2.974666142E1,1.347392175E-2
2.975660042E1,1.466163743E-2
2.976653942E1,4.384753928E-3
2.977647842E1,2.602814957E-3
2.978641642E1,7.732138708E-3
2.979635542E1,1.598478924E-2
2.980629442E1,2.597004287E-3
2.981623242E1,2.200636156E-3
2.982617142E1,2.068671808E-3
2.983611042E1,5.127167590E-3
2.984604942E1,4.816607349E-3
2.985598742E1,3.039382696E-3
2.986592642E1,6.128722541E-3
2.987586542E1,2.827092223E-3
2.988580342E1,5.493824556E-3
2.989574242E1,1.195346296E-2
2.990568142E1,1.221483350E-2
2.991562042E1,4.404817186E-3
2.992555842E1,7.254713550E-3
2.993549742E1,9.413907565E-3
2.994543642E1,3.075964339E-3
2.995537542E1,4.352740422E-3
2.996531342E1,8.230431117E-3
2.997525242E1,-5.812497810E-4
2.998519142E1,3.920996636E-3
2.999512942E1,2.512219660E-3
3.000506842E1,5.337082632E-3
3.001500742E1,6.674925573E-3
3.002494642E1,7.507313266E-3
3.003488442E1,1.260550059E-2
3.004482342E1,6.243693419E-3
3.005476242E1,4.744759686E-3
3.006470142E1,1.205447361E-2
3.007463942E1,1.495790854E-2
3.008457842E1,1.996316168E-2
3.009451742E1,5.724679939E-3
3.010445542E1,1.901295260E-3
3.011439442E1,8.055380099E-3
3.012433342E1,8.398173116E-3
3.013427242E1,5.402096361E-4
3.014421042E1,2.900365144E-3
3.015414942E1,1.392368227E-3
3.016408842E1,6.529731899E-3
3.017402742E1,1.510335803E-2
3.018396542E1,8.528566025E-3
3.019390442E1,3.943983503E-3
3.020384342E1,2.657340243E-3
3.021378142E1,5.771238394E-3
3.022372042E1,6.257324740E-3
3.023365942E1,6.329391673E-3
3.024359842E1,9.929010719E-3
3.025353642E1,8.267414756E-3
3.026347542E1,1.097650286E-2
3.027341442E1,1.513127849E-2
3.028335342E1,6.311192214E-3
3.029329142E1,5.732610226E-3
3.030322933E1,4.672510028E-3
3.031316833E1,-1.870853193E-3
3.032310633E1,2.803009003E-4
3.033304533E1,2.190915160E-3
3.034298433E1,7.952469103E-3
3.035292333E1,1.102200150E-4
3.036286133E1,-1.387032643E-3
3.037280033E1,-1.297716424E-3
3.038273933E1,-2.143406533E-3
3.039267833E1,-7.121689394E-3
3.040261633E1,2.770483866E-4
3.041255533E1,6.036701985E-3
3.042249433E1,9.012605846E-3
3.043243233E1,2.731672972E-3
3.044237133E1,4.122798666E-3
3.045231033E1,2.176626027E-3
3.046224933E1,8.138081655E-3
3.047218733E1,6.120024808E-3
3.048212633E1,1.353557333E-2
3.049206533E1,4.683327377E-3
3.050200433E1,-1.339377835E-4
3.051194233E1,2.568645291E-3
3.052188133E1,2.272154912E-3
3.053182033E1,1.081691042E-2
3.054175833E1,1.352460980E-3
3.055169733E1,1.553137422E-2
3.056163633E1,6.305344999E-3
3.057157533E1,7.957475781E-3
3.058151333E1,1.575641893E-3
3.059145233E1,8.632463738E-3
3.060139133E1,-2.876135744E-3
3.061133033E1,8.021575883E-3
3.062126833E1,2.323354594E-3
3.063120733E1,-2.341736779E-3
3.064114633E1,6.431937218E-4
3.065108433E1,2.930295579E-3
3.066102333E1,1.462311890E-2
3.067096233E1,4.360341802E-3
3.068090133E1,3.442950211E-3
3.069083933E1,1.256614152E-2
3.070077833E1,2.911694124E-3
3.071071733E1,-6.957821175E-4
3.072065633E1,7.076227292E-4
3.073059433E1,4.348939732E-3
3.074053333E1,-3.673513234E-4
3.075047233E1,4.985116795E-4
3.076041033E1,6.121084616E-3
3.077034933E1,1.825537272E-3
3.078028833E1,-5.151762441E-4
3.079022733E1,-6.080007926E-4
3.080016533E1,-5.103157461E-4
3.081010433E1,5.032259971E-4
3.082004333E1,6.280640513E-3
3.082998233E1,2.131419741E-3
3.083992033E1,2.290939093E-3
3.084985933E1,2.787696607E-3
3.085979833E1,4.732736349E-3
3.086973633E1,-2.065053843E-3
3.087967533E1,-1.378663816E-3
3.088961433E1,-1.834161915E-3
3.089955333E1,1.043077491E-2
3.090949133E1,2.096592262E-3
3.091943033E1,2.767925709E-4
3.092936933E1,1.410275325E-3
3.093930833E1,1.065761033E-2
3.094924633E1,-3.706111461E-3
3.095918533E1,8.955083862E-3
3.096912433E1,7.999904640E-3
3.097906333E1,1.724928617E-5
3.098900133E1,3.468312509E-3
3.099894033E1,4.743444063E-3
3.100887933E1,8.015436307E-3
3.101881733E1,1.072525531E-2
3.102875633E1,1.247028373E-2
3.103869533E1,4.987163320E-3
3.104863433E1,3.653815426E-3
3.105857233E1,5.633938462E-3
3.106851133E1,2.369876504E-3
3.107845033E1,2.154552788E-3
3.108838833E1,2.490548417E-4
3.109832733E1,5.234646723E-3
3.110826633E1,-3.875826895E-3
3.111820533E1,1.222872064E-3
3.112814333E1,6.330086030E-3
3.113808233E1,5.119822025E-3
3.114802133E1,2.536449060E-3
3.115796033E1,1.780550256E-3
3.116789833E1,4.870767184E-3
3.117783733E1,5.210600048E-3
3.118777633E1,3.227334134E-3
3.119771533E1,5.717992187E-3
3.120765333E1,7.011579014E-3
3.121759233E1,4.852202274E-3
3.122753133E1,1.150147319E-3
3.123746933E1,-5.015558861E-3
3.124740833E1,2.619406432E-3
3.125734733E1,1.159247048E-2
3.126728633E1,5.369607769E-3
3.127722433E1,7.809687406E-4
3.128716333E1,7.044761963E-3
3.129710233E1,-8.300488070E-4
3.130704154E1,1.959182695E-4
3.131697954E1,6.868614592E-3
3.132691854E1,-2.520515397E-3
3.133685754E1,-7.185460590E-3
3.134679554E1,2.826580591E-3
3.135673454E1,4.470123276E-3
3.136667354E1,7.651410587E-3
3.137661254E1,-2.803228274E-3
3.138655054E1,4.292002469E-3
3.139648954E1,9.163683280E-4
3.140642854E1,2.845401317E-4
3.141636754E1,7.468429282E-3
3.142630554E1,3.295856193E-3
3.143624454E1,3.763852715E-3
3.144618354E1,-6.031768396E-4
3.145612154E1,-3.386122584E-3
3.146606054E1,2.825228423E-3
3.147599954E1,4.718045220E-3
3.148593854E1,-2.209735885E-3
3.149587654E1,1.275222916E-2
3.150581554E1,-7.132872194E-3
3.151575454E1,5.473359302E-4
3.152569354E1,9.708387963E-3
3.153563154E1,-1.677127630E-3
3.154557054E1,-1.731250919E-3
3.155550954E1,-3.173941746E-4
3.156544854E1,9.134081751E-4
3.157538654E1,7.761959508E-3
3.158532554E1,5.361604393E-3
3.159526454E1,-4.528668523E-4
3.160520254E1,-1.319680028E-3
3.161514154E1,-5.890119597E-3
3.162508054E1,1.406291910E-3
3.163501954E1,-2.869155630E-3
3.164495754E1,8.386186324E-3
3.165489654E1,9.122168049E-3
3.166483554E1,6.289411336E-5
3.167477454E1,1.822175123E-3
3.168471254E1,-3.450076506E-3
3.169465154E1,2.816201784E-3
3.170459054E1,4.602233805E-3
3.171452954E1,5.158669464E-3
3.172446754E1,2.767779529E-3
3.173440654E1,-1.915986389E-3
3.174434554E1,1.390029341E-3
3.175428354E1,-4.311225191E-3
3.176422254E1,-1.672376767E-3
3.177416154E1,-9.942459315E-4
3.178410054E1,5.797185414E-3
3.179403854E1,5.205776095E-3
3.180397754E1,-4.920066521E-3
3.181391654E1,-1.844796538E-3
3.182385554E1,4.162559733E-3
3.183379354E1,7.268491052E-3
3.184373254E1,3.588618971E-3
3.185367154E1,1.141084135E-3
3.186360954E1,7.114599645E-4
3.187354854E1,1.343763247E-3
3.188348754E1,6.350258924E-3
3.189342654E1,-1.950667687E-3
3.190336454E1,-7.802707292E-3
3.191330354E1,-2.238679603E-3
3.192324254E1,4.053216800E-4
3.193318154E1,-4.971887469E-3
3.194311954E1,-4.323285073E-4
3.195305854E1,4.409275688E-3
3.196299754E1,6.278776713E-3
3.197293654E1,3.033974022E-4
3.198287454E1,7.583509795E-3
3.199281354E1,6.630815640E-3
3.200275254E1,2.419650927E-3
3.201269054E1,1.106388219E-2
3.202262954E1,-3.075416163E-3
3.203256854E1,2.120638937E-3
3.204250754E1,5.846630931E-3
3.205244554E1,4.387238994E-4
3.206238454E1,1.320301294E-3
3.207232354E1,1.221695311E-2
3.208226254E1,8.007944562E-3
3.209220054E1,5.329079255E-3
3.210213954E1,4.240693152E-3
3.211207854E1,-2.066698372E-3
3.212201754E1,-2.409052849E-3
3.213195554E1,4.708835855E-4
3.214189454E1,9.268604256E-3
3.215183354E1,-3.869723864E-3
3.216177154E1,-4.238427356E-3
3.217171054E1,7.253178656E-3
3.218164954E1,-2.082814761E-3
3.219158854E1,1.944308840E-3
3.220152654E1,5.673297532E-3
3.221146554E1,1.297847986E-2
3.222140454E1,2.317690104E-3
3.223134354E1,3.385172412E-4
3.224128154E1,5.261763185E-3
3.225122054E1,2.513571829E-3
3.226115954E1,-3.669200912E-3
3.227109854E1,1.277974762E-2
3.228103654E1,-7.819920033E-4
3.229097554E1,3.410863616E-3
3.230091517E1,4.639071263E-3
3.231085317E1,3.172479942E-3
3.232079217E1,-8.116666228E-4
3.233073117E1,7.379551604E-4
3.234067017E1,-9.249564260E-4
3.235060817E1,-6.531595699E-3
3.236054717E1,-1.130120605E-3
3.237048617E1,9.165875986E-3
3.238042517E1,-3.594648913E-3
3.239036317E1,-1.683998108E-4
3.240030217E1,3.435166106E-3
3.241024117E1,-6.275049113E-3
3.242018017E1,1.840922758E-3
3.243011817E1,3.221633099E-3
3.244005717E1,1.026259437E-3
3.244999617E1,8.614410460E-4
3.245993417E1,-2.724071592E-4
3.246987317E1,5.413498431E-3
3.247981217E1,-2.420345284E-3
3.248975117E1,-4.809334874E-5
3.249968917E1,6.403322406E-3
3.250962817E1,1.022904597E-2
3.251956717E1,7.104476653E-3
3.252950617E1,3.513445705E-3
3.253944417E1,5.223135017E-3
3.254938317E1,4.383328669E-3
3.255932217E1,2.072216682E-3
3.256926017E1,-7.935037091E-4
3.257919917E1,5.979143456E-4
3.258913817E1,5.227995515E-3
3.259907717E1,4.019778036E-3
3.260901517E1,8.881774396E-3
3.261895417E1,4.199945368E-3
3.262889317E1,8.898110054E-3
3.263883217E1,9.556250721E-3
3.264877017E1,7.563336901E-3
3.265870917E1,7.730859630E-3
3.266864817E1,8.836860470E-3
3.267858717E1,7.355029844E-3
3.268852517E1,2.823510803E-3
3.269846417E1,3.172955029E-3
3.270840317E1,-8.438884355E-3
3.271834117E1,6.277022548E-3
3.272828017E1,-1.127343178E-3
3.273821917E1,2.997246198E-3
3.274815817E1,8.104240894E-3
3.275809617E1,2.933219187E-3
3.276803517E1,4.016744792E-3
3.277797417E1,-3.129722178E-3
3.278791317E1,-2.085555643E-3
3.279785117E1,2.667609416E-3
3.280779017E1,2.782836109E-3
3.281772917E1,-2.340713516E-4
3.282766817E1,1.091203731E-2
3.283760617E1,4.657855444E-3
3.284754517E1,8.571506515E-3
3.285748417E1,5.104107633E-3
3.286742317E1,8.732487671E-3
3.287736117E1,1.513844132E-3
3.288730017E1,3.004920669E-3
3.289723917E1,2.611256875E-3
3.290717717E1,7.244042382E-3
3.291711617E1,3.278387636E-3
3.292705517E1,2.725606486E-3
3.293699417E1,2.169134282E-3
3.294693217E1,-9.085988402E-3
3.295687117E1,-1.375959478E-3
3.296681017E1,-7.174168155E-3
3.297674917E1,5.228214785E-3
3.298668717E1,1.126853473E-2
3.299662617E1,1.341753267E-3
3.300656517E1,-1.504488587E-3
3.301650417E1,-5.671543367E-3
3.302644217E1,4.677078165E-3
3.303638117E1,5.615263917E-3
3.304632017E1,-3.909484930E-3
3.305625817E1,-9.814916924E-4
3.306619717E1,6.844092831E-3
3.307613617E1,1.350681234E-2
3.308607517E1,3.284161761E-3
3.309601317E1,3.757566959E-4
3.310595217E1,5.298746824E-3
3.311589117E1,-5.289500915E-3
3.312583017E1,1.169223860E-3
3.313576817E1,-1.414185651E-3
3.314570717E1,4.724952243E-3
3.315564617E1,8.609549962E-3
3.316558517E1,-6.047007702E-3
3.317552317E1,-8.898731321E-5
3.318546217E1,5.628602877E-3
3.319540117E1,1.383999400E-3
3.320534017E1,4.776553921E-3
3.321527817E1,1.015982956E-2
3.322521717E1,7.257125527E-4
3.323515617E1,3.739586771E-3
3.324509417E1,-5.947714671E-3
3.325503317E1,-5.508442596E-4
3.326497217E1,-1.623552516E-3
3.327491117E1,3.549734987E-3
3.328484917E1,4.377335273E-3
3.329478817E1,-7.395229451E-3
3.330472642E1,-1.370148808E-3
3.331466542E1,4.281331301E-3
3.332460342E1,5.387989953E-3
3.333454242E1,5.229530409E-3
3.334448142E1,1.034335904E-3
3.335442042E1,-2.190878615E-3
3.336435842E1,2.447059751E-3
3.337429742E1,6.592626013E-3
3.338423642E1,6.075659059E-3
3.339417442E1,8.322342038E-3
3.340411342E1,1.466700956E-3
3.341405242E1,5.835850127E-3
3.342399142E1,-2.702107988E-3
3.343392942E1,2.497089989E-3
3.344386842E1,1.094313718E-2
3.345380742E1,-9.989237040E-4
3.346374642E1,7.567978129E-3
3.347368442E1,8.618064970E-3
3.348362342E1,6.763437800E-3
3.349356242E1,-2.513242923E-3
3.350350142E1,4.248623438E-3
3.351343942E1,1.569392681E-3
3.352337842E1,-2.636034451E-3
3.353331742E1,-1.958122887E-3
3.354325642E1,1.128574748E-2
3.355319442E1,8.249215297E-3
3.356313342E1,3.788520657E-3
3.357307242E1,2.518139966E-3
3.358301042E1,1.087549221E-2
3.359294942E1,2.704921961E-3
3.360288842E1,1.657722183E-3
3.361282742E1,-2.880009525E-3
3.362276542E1,-2.589549087E-3
3.363270442E1,-3.853315115E-4
3.364264342E1,7.298677303E-3
3.365258242E1,5.225437358E-3
3.366252042E1,5.468316078E-3
3.367245942E1,1.563106924E-3
3.368239842E1,-3.238918930E-3
3.369233742E1,1.593000814E-3
3.370227542E1,6.974887736E-3
3.371221442E1,7.268966138E-3
3.372215342E1,9.651377611E-3
3.373209242E1,2.676855326E-3
3.374203042E1,9.886910766E-4
3.375196942E1,3.892418370E-4
3.376190842E1,2.406238876E-3
3.377184642E1,-2.266526967E-4
3.378178542E1,-7.961532287E-3
3.379172442E1,6.253816411E-3
3.380166342E1,7.757793367E-4
3.381160142E1,-2.991910614E-3
3.382154042E1,-8.148643188E-3
3.383147942E1,4.071087353E-3
3.384141842E1,2.102000937E-3
3.385135642E1,4.202722795E-3
3.386129542E1,1.107828096E-3
3.387123442E1,5.069937967E-3
3.388117342E1,8.104898706E-3
3.389111142E1,7.931199856E-3
3.390105042E1,2.472495139E-3
3.391098942E1,3.377315216E-3
3.392092842E1,-8.041748777E-4
3.393086642E1,5.532343090E-3
3.394080542E1,8.109211028E-3
3.395074442E1,4.912757501E-3
3.396068242E1,7.818823680E-3
3.397062142E1,6.150064878E-3
3.398056042E1,3.794477507E-3
3.399049942E1,6.589300409E-3
3.400043742E1,1.747513488E-3
3.401037642E1,5.153041519E-3
3.402031542E1,2.393886633E-3
3.403025442E1,-5.161044896E-3
3.404019242E1,-4.323285073E-4
3.405013142E1,-6.223703250E-3
3.406007042E1,-5.852295421E-3
3.407000942E1,8.483213559E-3
3.407994742E1,1.269982349E-2
3.408988642E1,-1.775726303E-3
3.409982542E1,3.528319560E-3
3.410976442E1,-5.386381969E-3
3.411970242E1,-8.075735718E-4
3.412964142E1,-1.140755229E-3
3.413958042E1,4.487189837E-3
3.414951842E1,3.367667310E-3
3.415945742E1,1.532628313E-3
3.416939642E1,3.639526293E-3
3.417933542E1,-3.997046985E-3
3.418927342E1,2.300513908E-4
3.419921242E1,1.031101663E-2
3.420915142E1,5.412402079E-3
3.421909042E1,1.404318474E-3
3.422902842E1,-3.806537390E-4
3.423896742E1,7.222882770E-3
3.424890642E1,-2.932999916E-3
3.425884542E1,5.979874358E-3
3.426878342E1,-1.827181801E-3
3.427872242E1,6.249942631E-3
3.428866142E1,2.895797007E-3
3.429860042E1,-1.207450032E-4
3.430853858E1,4.000518769E-3
3.431847758E1,6.167131439E-3
3.432841658E1,9.918705001E-4
3.433835558E1,-5.792215280E-3
3.434829358E1,-9.355545044E-6
3.435823258E1,3.995658271E-3
3.436817158E1,-4.401637763E-3
3.437810958E1,-1.140170507E-3
3.438804858E1,2.067721635E-4
3.439798758E1,2.257427238E-3
3.440792658E1,2.147974670E-3
3.441786458E1,-4.507874362E-3
3.442780358E1,1.091996759E-2
3.443774258E1,-9.671660140E-4
3.444768158E1,8.422914147E-4
3.445761958E1,4.271171764E-3
3.446755858E1,4.671815671E-3
3.447749758E1,5.073044300E-3
3.448743658E1,6.227577031E-3
3.449737458E1,-4.242483862E-3
3.450731358E1,3.892528005E-3
3.451725258E1,7.583253980E-3
3.452719158E1,8.700145259E-3
3.453712958E1,5.046110563E-3
3.454706858E1,1.762972064E-3
3.455700758E1,6.563316844E-3
3.456694658E1,2.753234580E-3
3.457688458E1,3.444558196E-3
3.458682358E1,6.004505754E-3
3.459676258E1,-2.586333118E-3
3.460670058E1,-6.730364487E-3
3.461663958E1,-4.947036803E-3
3.462657858E1,9.837940335E-4
3.463651758E1,1.329876110E-3
3.464645558E1,-8.537665755E-4
3.465639458E1,2.964757606E-3
3.466633358E1,2.361471131E-3
3.467627258E1,8.064845279E-3
3.468621058E1,3.012083508E-3
3.469614958E1,-5.214218013E-3
3.470608858E1,-2.611110695E-3
3.471602758E1,1.127087362E-2
3.472596558E1,2.611074150E-3
3.473590458E1,1.027498316E-2
3.474584358E1,7.610370442E-3
3.475578258E1,6.545629017E-3
3.476572058E1,5.998841263E-3
3.477565958E1,3.498389125E-3
3.478559858E1,3.842205405E-3
3.479553758E1,1.425430577E-2
3.480547558E1,1.543376226E-2
3.481541458E1,7.906970456E-3
3.482535358E1,2.305155136E-3
3.483529158E1,3.553279862E-3
3.484523058E1,-2.306872755E-3
3.485516958E1,1.624795049E-4
3.486510858E1,-4.962349199E-3
3.487504658E1,3.793271519E-3
3.488498558E1,1.169903599E-2
3.489492458E1,5.164918676E-3
3.490486358E1,1.565153450E-3
3.491480158E1,9.933396131E-3
3.492474058E1,2.346926183E-3
3.493467958E1,7.124722637E-3
3.494461858E1,-9.233484417E-4
3.495455658E1,4.029097036E-4
3.496449558E1,1.955162734E-4
3.497443458E1,9.628390744E-3
3.498437358E1,3.274038769E-3
3.499431158E1,1.059800528E-2
3.500425058E1,1.544761285E-3
3.501418958E1,5.547874756E-3
3.502412858E1,2.805494070E-3
3.503406658E1,3.436810635E-3
3.504400558E1,4.689064957E-3
3.505394458E1,7.277408056E-3
3.506388358E1,-3.452013396E-3
3.507382158E1,-9.226869754E-3
3.508376058E1,4.401162677E-3
3.509369958E1,1.107426099E-3
3.510363858E1,-3.831570782E-3
3.511357658E1,2.430760637E-3
3.512351558E1,-2.973564975E-3
3.513345458E1,9.009097517E-4
3.514339258E1,-3.944422044E-3
3.515333158E1,2.734998576E-3
3.516327058E1,4.178639576E-3
3.517320958E1,8.263321705E-3
3.518314758E1,-8.946861215E-3
3.519308658E1,5.377245694E-4
3.520302558E1,-3.866580985E-3
3.521296458E1,-1.071136817E-3
3.522290258E1,-1.476312317E-3
3.523284158E1,1.717911959E-3
3.524278058E1,-3.054548912E-3
3.525271958E1,-5.854488127E-3
3.526265758E1,5.396614596E-4
3.527259658E1,-3.910910189E-3
3.528253558E1,-3.939305730E-3
3.529247458E1,3.309158608E-3
3.530241258E1,1.075887680E-3
3.531235204E1,-1.666091010E-4
3.532229104E1,-5.929661393E-3
3.533223004E1,-3.718682975E-3
3.534216804E1,3.472405560E-3
3.535210704E1,7.182756253E-3
3.536204604E1,2.711463533E-3
3.537198504E1,8.588244170E-3
3.538192304E1,-7.769816704E-3
3.539186204E1,-5.375308804E-3
3.540180104E1,-1.185120977E-3
3.541174004E1,-1.337660216E-3
3.542167804E1,4.484156594E-3
3.543161704E1,-1.907215565E-3
3.544155604E1,3.513299525E-3
3.545149404E1,2.136718780E-3
3.546143304E1,3.134107590E-4
3.547137204E1,1.360573992E-3
3.548131104E1,1.348550655E-3
3.549124904E1,1.615658775E-3
3.550118804E1,-8.426312841E-3
3.551112704E1,3.368982933E-3
3.552106604E1,-5.125815421E-4
3.553100404E1,2.648021244E-3
3.554094304E1,-3.177559711E-3
3.555088204E1,-1.288835965E-3
3.556082104E1,4.455834143E-3
3.557075904E1,-2.038777918E-3
3.558069804E1,-2.458059825E-3
3.559063704E1,2.995601669E-3
3.560057604E1,2.229981869E-3
3.561051404E1,-1.960205957E-3
3.562045304E1,-5.135536417E-3
3.563039204E1,6.912834160E-3
3.564033104E1,-6.260065623E-3
3.565026904E1,5.069535971E-4
3.566020804E1,7.783667296E-3
3.567014704E1,5.813009441E-3
3.568008604E1,2.697539851E-3
3.569002404E1,-1.130412966E-3
3.569996304E1,4.524940923E-3
3.570990204E1,4.336806759E-4
3.571984104E1,-1.816839539E-3
3.572977904E1,-4.505352750E-3
3.573971804E1,1.443969905E-3
3.574965704E1,5.798245221E-4
3.575959604E1,-1.482780799E-3
3.576953404E1,-5.630539767E-3
3.577947304E1,-1.736038327E-3
3.578941204E1,2.101525851E-3
3.579935104E1,-2.645791993E-3
3.580928904E1,2.349155433E-3
3.581922804E1,5.442332514E-3
3.582916704E1,-2.503521927E-3
3.583910604E1,-5.200111605E-3
3.584904404E1,-4.551582299E-3
3.585898304E1,-1.854115538E-3
3.586892204E1,2.320686802E-3
3.587886004E1,-3.044974096E-3
3.588879904E1,-4.112894945E-3
3.589873804E1,-4.537402801E-3
3.590867704E1,2.839590646E-3
3.591861504E1,-3.268008828E-3
3.592855404E1,9.721763469E-3
3.593849304E1,5.958495475E-3
3.594843204E1,5.288477652E-3
3.595837004E1,4.040791467E-4
3.596830904E1,6.479409300E-3
3.597824804E1,-5.784138814E-3
3.598818704E1,-1.990026757E-3
3.599812504E1,6.432302669E-4
3.600806404E1,6.522130519E-3
3.601800304E1,-6.565911546E-3
3.602794204E1,-1.469149478E-3
3.603788004E1,7.068918273E-4
3.604781904E1,-3.617964685E-4
3.605775804E1,4.197058305E-3
3.606769704E1,6.041708663E-3
3.607763504E1,1.213187613E-3
3.608757404E1,2.615276836E-3
3.609751304E1,1.424235553E-3
3.610745204E1,-3.564974293E-4
3.611739004E1,-5.083752014E-3
3.612732904E1,9.447273239E-4
3.613726804E1,1.216513216E-3
3.614720704E1,-7.103928477E-3
3.615714504E1,-6.021974310E-3
3.616708404E1,-7.393658012E-3
3.617702304E1,-7.814365178E-3
3.618696204E1,-5.981043801E-3
3.619690004E1,2.795297988E-3
3.620683904E1,-3.163745664E-3
3.621677804E1,-7.137659602E-3
3.622671704E1,-1.447989866E-3
3.623665504E1,-1.676579453E-3
3.624659404E1,7.473837957E-3
3.625653304E1,-3.897169232E-4
3.626647204E1,-3.318843059E-3
3.627641004E1,-6.179739498E-3
3.628634904E1,-6.916890666E-4
3.629628804E1,-5.858179182E-4
3.630623067E1,-9.732325003E-4
3.631616867E1,3.334228545E-3
3.632610767E1,5.373700820E-3
3.633604667E1,-4.388773888E-3
3.634598567E1,5.232015476E-3
3.635592367E1,-6.301215403E-3
3.636586267E1,-3.220756017E-3
3.637580167E1,-4.419617951E-3
3.638574067E1,-1.984873898E-3
3.639567867E1,-3.256168216E-5
3.640561767E1,1.914963126E-3
3.641555667E1,-3.797401115E-3
3.642549567E1,-1.045701429E-3
3.643543367E1,-4.765151851E-3
3.644537267E1,-1.307547055E-3
3.645531167E1,-7.403707914E-3
3.646525067E1,-1.090286449E-2
3.647518867E1,-9.193211719E-3
3.648512767E1,-3.660174273E-3
3.649506667E1,-5.003827885E-3
3.650500467E1,4.803853109E-4
3.651494367E1,-1.065095913E-2
3.652488267E1,-2.615021020E-3
3.653482167E1,-7.476761565E-3
3.654475967E1,7.027987763E-4
3.655469867E1,-5.546303317E-3
3.656463767E1,-2.965123057E-3
3.657457667E1,-1.254213139E-2
3.658451467E1,-1.632396430E-3
3.659445367E1,-1.544176564E-3
3.660439267E1,3.541110344E-3
3.661433167E1,5.151068084E-3
3.662426967E1,-5.443575047E-3
3.663420867E1,-6.173673011E-3
3.664414767E1,-5.687952116E-3
3.665408667E1,1.290809400E-3
3.666402467E1,-8.183434121E-3
3.667396367E1,-3.794660233E-3
3.668390267E1,-1.932504773E-4
3.669384167E1,-3.864899911E-3
3.670377967E1,1.647672281E-3
3.671371867E1,-6.181237847E-3
3.672365767E1,-1.105547681E-2
3.673359667E1,2.779291235E-3
3.674353467E1,-4.068492651E-3
3.675347367E1,-4.703354090E-3
3.676341267E1,-3.851560950E-3
3.677335167E1,-6.618938483E-3
3.678328967E1,-9.259650707E-3
3.679322867E1,-2.523256280E-3
3.680316767E1,-5.141675994E-3
3.681310667E1,3.328527510E-4
3.682304467E1,-8.753501102E-3
3.683298367E1,-7.641177960E-3
3.684292267E1,3.298779801E-3
3.685286167E1,-9.385840930E-3
3.686279967E1,-5.180742703E-3
3.687273867E1,4.585459605E-3
3.688267767E1,-5.603825301E-4
3.689261667E1,-1.134359837E-4
3.690255467E1,-4.225965478E-3
3.691249367E1,-3.470687941E-4
3.692243267E1,-3.347604051E-3
3.693237167E1,-5.456183106E-4
3.694230967E1,-1.130453166E-2
3.695224867E1,-4.826839976E-3
3.696218767E1,-9.002775215E-3
3.697212667E1,-2.462883778E-3
3.698206467E1,-9.399983883E-3
3.699200367E1,-3.012046963E-3
3.700194267E1,-2.737520188E-3
3.701188167E1,-5.818710476E-3
3.702181967E1,-1.062150378E-2
3.703175867E1,9.484914690E-3
3.704169767E1,3.365218788E-3
3.705163667E1,2.573907785E-3
3.706157467E1,-2.657559514E-4
3.707151367E1,-7.267467789E-3
3.708145267E1,-8.484931178E-3
3.709139167E1,-4.811893031E-3
3.710132967E1,-4.199433737E-3
3.711126867E1,-5.590376705E-3
3.712120767E1,-1.853896268E-3
3.713114667E1,5.313291773E-4
3.714108467E1,-7.263703644E-4
3.715102367E1,-4.893827140E-3
3.716096267E1,-7.189553641E-3
3.717090167E1,-5.865707472E-3
3.718083967E1,-8.503861539E-3
3.719077867E1,-7.025612332E-3
3.720071767E1,-5.048741810E-3
3.721065667E1,-6.098499745E-3
3.722059467E1,-5.061020963E-3
3.723053367E1,-5.440468714E-3
3.724047267E1,-2.668925039E-3
3.725041167E1,-2.607638910E-3
3.726034967E1,-8.512376547E-3
3.727028867E1,6.822604313E-4
3.728022767E1,-7.057406567E-3
3.729016667E1,-5.714337677E-3
3.730010467E1,-1.530691423E-3
3.731004008E1,-7.928203158E-3
3.731997908E1,-2.155868411E-3
3.732991808E1,-2.290135100E-3
3.733985608E1,-3.091678731E-3
3.734979508E1,-4.173450172E-4
3.735973408E1,-2.245732807E-3
3.736967308E1,-8.541539535E-3
3.737961108E1,-2.465770841E-3
3.738955008E1,-8.149995357E-3
3.739948908E1,-7.909272797E-3
3.740942808E1,-5.990910977E-3
3.741936608E1,-6.396123022E-3
3.742930508E1,-1.324854814E-2
3.743924408E1,-2.395275347E-3
3.744918308E1,-1.134944558E-3
3.745912108E1,-4.744942412E-3
3.746906008E1,5.714301132E-3
3.747899908E1,-6.480980739E-3
3.748893808E1,6.637320668E-4
3.749887608E1,-2.076638639E-3
3.750881508E1,-2.440993264E-3
3.751875408E1,-6.107160933E-3
3.752869308E1,-1.038651880E-2
3.753863108E1,-4.136539623E-3
3.754857008E1,-2.971372269E-3
3.755850908E1,-7.725999132E-4
3.756844808E1,-4.939947054E-3
3.757838608E1,-5.006714948E-3
3.758832508E1,-9.424432553E-3
3.759826408E1,-1.409577314E-2
3.760820308E1,-1.975737624E-3
3.761814108E1,-3.253610060E-3
3.762808008E1,-2.291998900E-3
3.763801908E1,-6.867298968E-3
3.764795808E1,-1.137177464E-2
3.765789608E1,-1.715134531E-3
3.766783508E1,-4.913853854E-4
3.767777408E1,-2.009980381E-6
3.768771308E1,-2.054053769E-3
3.769765108E1,-5.965694860E-3
3.770759008E1,-1.036254521E-2
3.771752908E1,-1.225130551E-2
3.772746808E1,-4.310092293E-3
3.773740608E1,-1.743778579E-2
3.774734508E1,-8.253015988E-3
3.775728408E1,-5.577622466E-3
3.776722308E1,-5.977462381E-3
3.777716108E1,-1.026551798E-4
3.778710008E1,-5.926664695E-3
3.779703908E1,-3.488741219E-3
3.780697808E1,-2.444245778E-3
3.781691608E1,-2.635778636E-3
3.782685508E1,-6.793843322E-3
3.783679408E1,-3.267899193E-3
3.784673308E1,-3.371102549E-3
3.785667108E1,-3.766008876E-3
3.786661008E1,-2.167489752E-3
3.787654908E1,-3.770686649E-3
3.788648808E1,2.525924072E-3
3.789642608E1,1.931298785E-3
3.790636508E1,-3.569615521E-3
3.791630408E1,-2.982555069E-3
3.792624308E1,-6.052343287E-3
3.793618108E1,-9.109961987E-4
3.794612008E1,3.296367824E-5
3.795605908E1,-8.003412969E-3
3.796599808E1,1.392806768E-3
3.797593608E1,7.685434073E-5
3.798587508E1,-2.152615897E-3
3.799581408E1,-9.800664335E-4
3.800575308E1,-6.340026297E-3
3.801569108E1,-6.014263295E-3
3.802563008E1,-7.969316393E-3
3.803556908E1,-8.437678367E-3
3.804550808E1,6.786059216E-4
3.805544608E1,-3.957834095E-5
3.806538508E1,5.356049538E-4
3.807532408E1,-3.141270429E-3
3.808526308E1,2.552090362E-3
3.809520108E1,-3.246118315E-3
3.810514008E1,-4.385996461E-3
3.811507908E1,-1.413370695E-2
3.812501808E1,-5.234098546E-3
3.813495608E1,-2.950907014E-3
3.814489508E1,-1.186180785E-2
3.815483408E1,-8.185005561E-4
3.816477308E1,-3.244656511E-3
3.817471108E1,9.778737277E-4
3.818465008E1,-5.461664870E-3
3.819458908E1,3.696427010E-3
3.820452808E1,2.383873276E-3
3.821446608E1,-8.353405371E-3
3.822440508E1,-7.895166390E-3
3.823434408E1,-8.202181756E-3
3.824428308E1,1.185084432E-3
3.825422108E1,-1.166811883E-2
3.826416008E1,-3.299949244E-3
3.827409908E1,-4.629057907E-3
3.828403808E1,-9.010632411E-3
3.829397608E1,-1.019498594E-3
3.830391508E1,-4.335746951E-3
3.831385429E1,-1.198218741E-2
3.832379329E1,-4.921564870E-3
3.833373229E1,-7.744856402E-3
3.834367029E1,-9.542729035E-3
3.835360929E1,-6.110413447E-3
3.836354829E1,-1.217792295E-3
3.837348629E1,-6.924638227E-3
3.838342529E1,8.349823952E-4
3.839336429E1,-1.059197534E-2
3.840330329E1,-9.481260180E-3
3.841324229E1,-1.176255137E-2
3.842318029E1,-5.689194649E-3
3.843311929E1,-1.032362469E-3
3.844305829E1,2.394398265E-3
3.845299729E1,-8.941379450E-3
3.846293529E1,2.616665550E-3
3.847287429E1,-4.148526415E-3
3.848281329E1,1.647014469E-3
3.849275229E1,-8.386734501E-4
3.850269029E1,3.003495410E-3
3.851262929E1,-4.350876622E-3
3.852256829E1,-5.527080595E-3
3.853250729E1,-2.299381010E-3
3.854244529E1,-6.681065150E-3
3.855238429E1,-4.063485973E-3
3.856232329E1,-9.096988477E-3
3.857226229E1,-7.846597955E-3
3.858220029E1,-8.565842025E-3
3.859213929E1,-5.812826715E-3
3.860207829E1,-5.202377401E-3
3.861201729E1,-3.404175863E-3
3.862195529E1,-1.727377139E-3
3.863189429E1,-9.134081751E-3
3.864183329E1,-7.620712705E-3
3.865177229E1,-1.269788660E-2
3.866171029E1,-6.000705063E-5
3.867164929E1,-2.904677466E-3
3.868158829E1,-6.230208278E-3
3.869152729E1,-6.146373823E-3
3.870146529E1,3.719742782E-3
3.871140429E1,-6.940535344E-3
3.872134329E1,-7.196533754E-3
3.873128229E1,-6.305454634E-3
3.874122029E1,-5.234463997E-3
3.875115929E1,-5.427641384E-3
3.876109829E1,-1.552801207E-4
3.877103729E1,6.637320668E-4
3.878097529E1,2.542734817E-3
3.879091429E1,-9.372173063E-3
3.880085329E1,-1.039901722E-2
3.881079229E1,-6.188656501E-3
3.882073029E1,-3.451721035E-3
3.883066929E1,-5.277112126E-4
3.884060829E1,1.943175942E-3
3.885054729E1,8.044672385E-4
3.886048529E1,-5.390767381E-3
3.887042429E1,1.208911836E-3
3.888036329E1,-1.894753687E-3
3.889030229E1,-2.526508793E-3
3.890024129E1,-4.963555187E-4
3.891017929E1,-4.145420082E-3
3.892011829E1,2.471910417E-3
3.893005729E1,-4.931468591E-3
3.893999629E1,-3.723178022E-3
3.894993429E1,-3.607585877E-3
3.895987329E1,-2.116107345E-3
3.896981229E1,-7.448804565E-3
3.897975129E1,-1.153180562E-3
3.898968929E1,-2.226546630E-3
3.899962829E1,6.795560941E-4
3.900956729E1,-1.269211248E-3
3.901950629E1,-2.756085098E-3
3.902944429E1,1.431069486E-3
3.903938329E1,-2.425644323E-3
3.904932229E1,-7.434625067E-3
3.905926129E1,-3.620997928E-3
3.906919929E1,-7.289065942E-3
3.907913829E1,-6.389764175E-3
3.908907729E1,3.846700452E-3
3.909901629E1,-3.182127848E-3
3.910895429E1,-5.792069100E-3
3.911889329E1,-5.487831160E-3
3.912883229E1,-7.093111128E-3
3.913877129E1,-6.841096133E-3
3.914870929E1,-6.615576334E-3
3.915864829E1,-4.681719393E-3
3.916858729E1,-9.806182645E-3
3.917852629E1,-8.259776831E-3
3.918846429E1,-1.060326777E-2
3.919840329E1,-4.034286439E-3
3.920834229E1,-4.227829278E-3
3.921828129E1,-7.655722909E-3
3.922821929E1,-2.786380984E-3
3.923815829E1,-7.561253831E-3
3.924809729E1,-4.843358360E-3
3.925803629E1,-5.032515787E-3
3.926797429E1,-9.549160972E-3
3.927791329E1,-9.845797531E-3
3.928785229E1,1.058419123E-3
3.929779129E1,1.350231729E-3
3.930772904E1,-5.662626363E-3
3.931766804E1,-1.727497738E-2
3.932760704E1,-3.609961309E-3
3.933754604E1,-4.157553054E-3
3.934748504E1,2.709563188E-3
3.935742304E1,2.618785165E-3
3.936736204E1,-9.877737947E-3
3.937730104E1,-1.166479323E-2
3.938724004E1,-3.185855448E-3
3.939717804E1,5.318773538E-4
3.940711704E1,-7.407398969E-3
3.941705604E1,-3.061273210E-3
3.942699504E1,-8.520818464E-3
3.943693304E1,-2.248839140E-3
3.944687204E1,-6.700836048E-3
3.945681104E1,-9.072357081E-3
3.946675004E1,-5.854926668E-3
3.947668804E1,-6.412970312E-3
3.948662704E1,-6.800933070E-3
3.949656604E1,-8.440126888E-3
3.950650504E1,-2.028910741E-3
3.951644304E1,1.409288608E-3
3.952638204E1,4.737779573E-3
3.953632104E1,-4.739351012E-3
3.954626004E1,5.056379735E-4
3.955619804E1,3.201533295E-3
3.956613704E1,-6.067399867E-3
3.957607604E1,-9.942386225E-3
3.958601504E1,-2.086432725E-3
3.959595304E1,-5.554306693E-3
3.960589204E1,-4.937608168E-3
3.961583104E1,-4.759816267E-3
3.962577004E1,7.751946151E-4
3.963570804E1,-2.773517109E-3
3.964564704E1,-4.375910014E-3
3.965558604E1,-5.352285393E-3
3.966552504E1,-8.565915115E-3
3.967546304E1,5.039568990E-5
3.968540204E1,-5.831355080E-3
3.969534104E1,-1.218380671E-2
3.970528004E1,-1.916205660E-3
3.971521904E1,-2.571897805E-3
3.972515704E1,5.469339341E-3
3.973509604E1,-5.035512485E-3
3.974503504E1,-1.383111354E-2
3.975497404E1,-2.387856692E-4
3.976491204E1,-3.973877393E-3
3.977485104E1,-4.581001103E-3
3.978479004E1,-4.611625895E-3
3.979472904E1,-4.956721254E-3
3.980466704E1,-9.096074849E-3
3.981460604E1,1.683303751E-3
3.982454504E1,2.653722279E-3
3.983448404E1,-8.649786115E-3
3.984442204E1,-6.464718170E-3
3.985436104E1,-3.014276214E-3
3.986430004E1,2.702619620E-3
3.987423904E1,1.644017771E-3
3.988417704E1,-6.382199340E-3
3.989411604E1,-5.965804495E-3
3.990405504E1,-1.161951385E-2
3.991399404E1,1.838510782E-3
3.992393204E1,-5.537313223E-4
3.993387104E1,-5.617200807E-3
3.994381004E1,-4.907823913E-3
3.995374904E1,-5.496857800E-3
3.996368704E1,6.663304232E-3
3.997362604E1,6.771806628E-5
3.998356504E1,-1.065545417E-3
3.999350404E1,-7.816119343E-3
4.000344304E1,-3.850756958E-3
4.001338104E1,-4.458611570E-3
4.002332004E1,-9.864983708E-3
4.003325904E1,2.267477140E-3
4.004319804E1,-3.036130182E-3
4.005313604E1,-3.617379963E-3
4.006307504E1,7.965442613E-3
4.007301404E1,7.451143451E-3
4.008295304E1,5.743427575E-4
4.009289104E1,-4.142679200E-3
4.010283004E1,-2.339105532E-3
4.011276904E1,-1.112666667E-2
4.012270804E1,-6.289265156E-3
4.013264604E1,-4.707300961E-3
4.014258504E1,-2.422537990E-3
4.015252404E1,2.919953316E-4
4.016246304E1,1.217024848E-3
4.017240104E1,-9.194600433E-3
4.018234004E1,4.230460525E-4
4.019227904E1,-1.971242577E-4
4.020221804E1,-2.991472073E-3
4.021215704E1,-5.765062273E-3
4.022209504E1,4.282025658E-3
4.023203404E1,-3.393943235E-3
4.024197304E1,-7.969974205E-3
4.025191204E1,1.143349931E-3
4.026185004E1,-4.423637912E-3
4.027178904E1,2.017837577E-3
4.028172804E1,-1.264153406E-2
4.029166704E1,-1.459209211E-3
4.030160504E1,6.064768620E-3
4.031154379E1,-1.828058884E-3
4.032148279E1,-8.212341294E-3
4.033142179E1,-2.342504226E-3
4.034135979E1,-6.899349019E-4
4.035129879E1,-9.442230016E-3
4.036123779E1,-2.952003367E-3
4.037117679E1,-2.821208462E-3
4.038111479E1,-4.676895440E-3
4.039105379E1,-3.630938195E-3
4.040099279E1,3.485159799E-3
4.041093179E1,-4.826145619E-4
4.042086979E1,1.087764837E-3
4.043080879E1,-1.523857489E-3
4.044074779E1,2.611878142E-4
4.045068679E1,6.135191023E-4
4.046062579E1,-7.120702676E-3
4.047056379E1,-9.571380392E-3
4.048050279E1,-1.243556589E-2
4.049044179E1,-6.880272478E-3
4.050038079E1,-1.148780532E-2
4.051031879E1,-6.698679887E-3
4.052025779E1,4.555382989E-3
4.053019679E1,2.539884299E-3
4.054013579E1,-6.938744634E-3
4.055007379E1,1.716377065E-3
4.056001279E1,-1.221519895E-3
4.056995179E1,-3.978043534E-3
4.057989079E1,-4.362826869E-3
4.058982879E1,-7.780085877E-3
4.059976779E1,1.906192303E-4
4.060970679E1,3.142147511E-3
4.061964579E1,-8.209198415E-3
4.062958379E1,-1.045043617E-3
4.063952279E1,-6.251038983E-3
4.064946179E1,-1.471196003E-3
