Time (s),Linear Acceleration x (m/s^2)
1.382209690E-1,3.837563097E-3
1.550968440E-1,1.433148980E-3
1.719773480E-1,-8.422136307E-5
1.888428480E-1,-8.267611265E-4
2.057123640E-1,-2.769157290E-4
2.226048610E-1,9.276196361E-4
2.394807480E-1,-2.857066691E-3
2.563676090E-1,-6.272643805E-4
2.732380820E-1,8.105114102E-4
2.901257580E-1,-7.560849190E-4
3.070057530E-1,-3.548637033E-4
3.239038550E-1,-1.431740820E-3
3.407871680E-1,-2.296827734E-3
3.576547000E-1,-4.206076264E-3
3.745349190E-1,-2.713724971E-3
3.914254850E-1,-5.363054574E-3
4.083278280E-1,2.006478608E-3
4.251615270E-1,5.420207977E-3
4.420643610E-1,-7.782131433E-5
4.589353220E-1,-4.906453192E-3
4.758307490E-1,-1.634947956E-3
4.926991370E-1,3.626435995E-3
5.095837210E-1,-8.928179741E-4
5.264723520E-1,-3.810301423E-4
5.433277400E-1,-2.051733434E-3
5.602325670E-1,3.531023860E-3
5.771051660E-1,-2.617061138E-3
5.939581010E-1,6.085783243E-4
6.108628370E-1,-7.075443864E-4
6.277288550E-1,-1.394122839E-3
6.446266720E-1,7.158815861E-4
6.615064540E-1,-2.975277603E-3
6.783661550E-1,-4.679627717E-3
6.952571360E-1,-4.894964397E-3
7.121337350E-1,2.048708498E-3
7.290139730E-1,-1.515150070E-3
7.458812420E-1,-3.261148930E-3
7.627715720E-1,3.513120115E-3
7.796583130E-1,1.553758979E-3
7.965352650E-1,1.313075423E-3
8.134186480E-1,-1.560933888E-3
8.303101800E-1,-4.235565662E-3
8.471880680E-1,-2.328261733E-3
8.640540970E-1,8.243098855E-4
8.809299930E-1,2.538017929E-3
8.978314110E-1,-4.204079509E-3
9.147153830E-1,-3.441363573E-3
9.315913610E-1,-3.065541387E-4
9.484698200E-1,2.473667264E-3
9.653370280E-1,6.126165390E-4
9.822326380E-1,-5.473673344E-3
9.991086350E-1,-7.540650666E-3
1.015995598E0,1.297973096E-3
1.032873640E0,7.451534271E-3
1.049754104E0,-5.126446486E-4
1.066634038E0,-1.708999276E-3
1.083512568E0,1.077242196E-3
1.100394811E0,5.550153553E-3
1.117274033E0,2.207808197E-3
1.134154862E0,1.834765077E-3
1.151036251E0,1.757018268E-3
1.167899116E0,-1.231700182E-3
1.184782600E0,1.052245498E-4
1.201661558E0,3.056675196E-4
1.218543181E0,-2.542689443E-3
1.235420225E0,-4.170276225E-3
1.252301696E0,-2.188459039E-3
1.269181670E0,-2.968527377E-3
1.286064443E0,-4.184484482E-3
1.302931244E0,-6.065092981E-3
1.319842652E0,-3.446817398E-3
1.336719350E0,-3.103390336E-3
1.353599356E0,-1.911476254E-3
1.370479779E0,4.760444164E-3
1.387361605E0,-1.818187535E-3
1.404237764E0,-2.877824008E-3
1.421116744E0,-4.125520587E-3
1.438005242E0,-2.055175602E-3
1.454881138E0,1.274183393E-3
1.471763015E0,-5.228035152E-3
1.488637791E0,-4.427552223E-3
1.505505285E0,2.027243376E-3
1.522387366E0,7.772445679E-4
1.539285936E0,1.715153456E-3
1.556154985E0,8.734092116E-3
1.573051550E0,-1.141153276E-3
1.589897590E0,1.456677914E-3
1.606804726E0,7.484629750E-4
1.623681312E0,-7.234513760E-5
1.640568357E0,3.426723182E-3
1.657427998E0,-1.757107675E-3
1.674311675E0,2.675518394E-3
1.691192180E0,-1.861378551E-3
1.708072378E0,-1.364961267E-3
1.724948121E0,-5.419932306E-3
1.741832968E0,3.817543387E-3
1.758710034E0,-5.886107683E-4
1.775596589E0,-2.414397895E-3
1.792474429E0,2.544447780E-3
1.809372246E0,2.974718809E-4
1.826230553E0,-1.084908843E-3
1.843134555E0,7.497198880E-3
1.860005914E0,2.974539995E-3
1.876889134E0,1.182228327E-3
1.893776747E0,2.076253295E-3
1.910647609E0,-6.840825081E-4
1.927530848E0,-2.208754420E-3
1.944410283E0,-2.510860562E-3
1.961286587E0,1.597918570E-3
1.978175595E0,-6.629608572E-3
1.995051429E0,2.726741135E-3
2.011931863E0,-5.896165967E-4
2.028809242E0,3.005139530E-3
2.045690672E0,2.439536154E-3
2.062572894E0,3.417506814E-3
2.079437113E0,5.393743515E-3
2.096316416E0,2.796545625E-3
2.113214507E0,-1.578316092E-3
2.130093893E0,4.763856530E-3
2.146966146E0,5.651742220E-3
2.163837596E0,-1.154847443E-3
2.180725659E0,3.042154014E-3
2.197600375E0,1.380011439E-3
2.214481783E0,-6.717294455E-4
2.231360822E0,3.063544631E-3
2.248242771E0,4.749812186E-3
2.265109683E0,2.714902163E-3
2.282002954E0,-1.616641879E-3
2.298894475E0,3.551453352E-3
2.315783930E0,1.544117928E-3
2.332658452E0,-4.591226578E-3
2.349538143E0,1.441687346E-3
2.366417130E0,6.398431957E-3
2.383277961E0,2.036690712E-3
2.400197202E0,-3.889799118E-4
2.417058906E0,4.092082381E-4
2.433940376E0,4.078038037E-3
2.450813587E0,5.104660988E-3
2.467702463E0,3.020323813E-3
2.484578989E0,-4.197455943E-3
2.501456797E0,-5.265384912E-3
2.518345581E0,-1.337394118E-3
2.535222453E0,2.157784998E-3
2.552098929E0,9.362548590E-4
2.568982169E0,2.615943551E-3
2.585859407E0,-8.223205805E-5
2.602751761E0,2.417095006E-3
2.619617913E0,-2.417065203E-3
2.636486463E0,2.134449780E-3
2.653359693E0,-7.929652929E-5
2.670247309E0,1.351296902E-3
2.687137639E0,2.689003944E-3
2.704010696E0,5.848899484E-3
2.720888250E0,2.242095768E-3
2.737773341E0,1.782454550E-3
2.754651760E0,-1.240022480E-3
2.771538408E0,1.161359251E-3
2.788402819E0,2.653203905E-3
2.805289557E0,-8.113682270E-6
2.822180601E0,-4.321709275E-4
2.839069710E0,5.384571850E-3
2.855923968E0,2.178676426E-3
2.872826333E0,1.628205180E-3
2.889703968E0,2.774357796E-3
2.906590312E0,-2.278111875E-3
2.923451619E0,-3.703780472E-3
2.940349549E0,8.776858449E-4
2.957225109E0,2.626553178E-3
2.974111908E0,-8.947402239E-5
2.990977043E0,-4.060789943E-4
3.007870058E0,-1.619011164E-3
3.024750775E0,2.293467522E-3
3.041623854E0,2.912282944E-3
3.058494337E0,5.993247032E-5
3.075392521E0,4.219673574E-3
3.092271713E0,7.889121771E-4
3.109152176E0,-1.529313624E-3
3.126016902E0,-1.842655241E-3
3.142886347E0,-1.960583031E-3
3.159763434E0,-8.467659354E-4
3.176662726E0,3.468200564E-3
3.193540188E0,6.959550083E-3
3.210420234E0,1.144416630E-3
3.227282518E0,-3.474354744E-4
3.244180387E0,2.327643335E-3
3.261058419E0,9.646423161E-3
3.277944843E0,7.288753986E-4
3.294838184E0,5.265846848E-3
3.311715983E0,1.161195338E-3
3.328592255E0,2.360843122E-3
3.345464051E0,7.255449891E-4
3.362340364E0,1.104705036E-3
3.379231040E0,4.009723663E-3
3.396121767E0,-3.196530044E-3
3.412994275E0,-5.440644920E-3
3.429902458E0,-6.039440632E-4
3.446756310E0,1.891762018E-3
3.463638888E0,5.217656493E-3
3.480519026E0,4.500150681E-3
3.497399225E0,-4.338853061E-3
3.514277938E0,-2.728439867E-3
3.531160415E0,1.495324075E-3
3.548025467E0,7.362276316E-3
3.564928564E0,-9.368062019E-4
3.581801439E0,-2.277381718E-3
3.598674730E0,2.648793161E-3
3.615551042E0,2.189338207E-3
3.632427926E0,-3.089614213E-3
3.649308296E0,4.209242761E-3
3.666172087E0,2.366118133E-3
3.683057148E0,-8.582919836E-4
3.699947936E0,-3.639124334E-3
3.716829437E0,-5.676746368E-4
3.733709869E0,1.645162702E-3
3.750590271E0,4.978559911E-3
3.767469279E0,-3.271609545E-3
3.784362274E0,1.348003745E-3
3.801248354E0,2.066217363E-3
3.818128359E0,3.179140389E-3
3.835003278E0,-1.804180443E-3
3.851881666E0,-1.397646964E-3
3.868770532E0,2.743408084E-3
3.885649306E0,-6.181672215E-4
3.902523310E0,-2.247452736E-3
3.919412338E0,1.535579562E-3
3.936282658E0,-8.868649602E-4
3.953167465E0,6.704628468E-4
3.970048803E0,8.602216840E-4
3.986909043E0,9.172335267E-4
4.003812648E0,2.082593739E-3
4.020691474E0,-6.430968642E-4
4.037564836E0,-5.087956786E-3
4.054449339E0,5.600601435E-5
4.071329721E0,1.138821244E-4
4.088210377E0,-9.768605232E-4
4.105060108E0,7.641889155E-3
4.121956797E0,-3.910504282E-3
4.138829783E0,-6.910502911E-3
4.155702901E0,7.496550679E-4
4.172601410E0,1.935169101E-3
4.189474794E0,-7.372796535E-4
4.206372275E0,2.930335701E-3
4.223226147E0,4.803761840E-4
4.240117963E0,-9.891837835E-4
4.257000349E0,2.867117524E-3
4.273879855E0,-6.398633122E-4
4.290774561E0,4.599340260E-3
4.307634648E0,2.551697195E-3
4.324537460E0,4.037484527E-3
4.341412155E0,-2.211242914E-3
4.358295446E0,-2.533331513E-3
4.375175278E0,-1.464419067E-3
4.392058835E0,-8.624792099E-5
4.408937405E0,4.841655493E-3
4.425799608E0,-2.380535007E-4
4.442696256E0,3.721147776E-3
4.459576750E0,2.551920712E-3
4.476445921E0,-2.797849476E-3
4.493337573E0,2.745062113E-3
4.510217579E0,2.450719476E-4
4.527097614E0,2.152241766E-3
4.543958445E0,6.413273513E-3
4.560843323E0,4.115626216E-3
4.577742015E0,-2.635717392E-4
4.594601838E0,-2.140626311E-3
4.611486564E0,1.671217382E-3
4.628367494E0,3.352373838E-3
4.645232312E0,-1.609720290E-3
4.662126865E0,-2.329938114E-3
4.679003829E0,-2.515763044E-3
4.695890903E0,1.552186906E-3
4.712767500E0,2.136252820E-3
4.729647964E0,-7.192119956E-4
4.746528244E0,1.799590886E-3
4.763411951E0,2.149283886E-3
4.780308609E0,9.918957949E-4
4.797152961E0,-3.901712596E-3
4.814047451E0,4.106134176E-3
4.830943672E0,1.190051436E-3
4.847821550E0,1.826643944E-3
4.864688209E0,1.913130283E-3
4.881584624E0,-2.198815346E-3
4.898464883E0,5.235537887E-3
4.915344613E0,4.073508084E-3
4.932226175E0,-9.286403656E-4
4.949105479E0,4.105880857E-3
4.965986145E0,2.036824822E-3
4.982866893E0,3.574766219E-3
4.999740602E0,5.943246186E-3
5.016630597E0,1.102566719E-3
5.033507000E0,4.410274327E-3
5.050388084E0,1.919828355E-3
5.067265617E0,-2.573050559E-3
5.084131554E0,2.634070814E-3
5.101011763E0,-7.617548108E-4
5.117898136E0,-1.371204853E-4
5.134775201E0,1.129314303E-3
5.151655512E0,-5.627959967E-3
5.168534734E0,-3.795266151E-3
5.185416489E0,1.670323312E-3
5.202293209E0,4.312403500E-3
5.219180172E0,1.762866974E-3
5.236056647E0,2.747103572E-4
5.252937365E0,1.162633300E-3
5.269835447E0,-1.740835607E-3
5.286711587E0,2.577133477E-3
5.303586149E0,1.621372998E-3
5.320455769E0,1.428648829E-3
5.337377838E0,-2.672553062E-3
5.354232736E0,-5.188018084E-3
5.371112896E0,2.774819732E-4
5.387994670E0,1.037441194E-3
5.404853312E0,7.778406143E-6
5.421750500E0,2.108708024E-3
5.438634534E0,2.357736230E-3
5.455518964E0,-1.669518650E-3
5.472394962E0,6.797984242E-4
5.489273085E0,1.061409712E-3
5.506125776E0,1.095011830E-3
5.523051192E0,-4.704043269E-3
5.539900335E0,1.428216696E-3
5.556796086E0,1.194633543E-3
5.573660537E0,1.193813980E-3
5.590543483E0,5.715861917E-4
5.607423875E0,-4.138588905E-3
5.624291164E0,2.882704139E-4
5.641184241E0,3.920644522E-3
5.658064623E0,2.558566630E-3
5.674944719E0,2.849102020E-5
5.691825550E0,-2.093620598E-3
5.708692940E0,-3.568746150E-3
5.725586008E0,6.142102182E-3
5.742466288E0,1.840353012E-3
5.759363779E0,-5.815654993E-3
5.776223866E0,5.927532911E-4
5.793122243E0,-3.049120307E-3
5.809997438E0,-3.524355590E-3
5.826874991E0,-3.618985415E-3
5.843750429E0,3.329366446E-3
5.860642234E0,-1.478910446E-3
5.877519971E0,7.017329335E-4
5.894403211E0,-3.039218485E-3
5.911283004E0,-3.615505993E-3
5.928167892E0,4.441514611E-4
5.945019779E0,-3.027543426E-3
5.961923823E0,-6.435066462E-4
5.978799982E0,-2.081751823E-3
5.995688319E0,2.443984151E-3
6.012565201E0,1.367941499E-3
6.029445573E0,-4.887580872E-6
6.046325569E0,-1.951664686E-3
6.063178067E0,2.486638725E-3
6.080072680E0,1.399993896E-3
6.096952604E0,-1.606330276E-3
6.113832914E0,-3.039389849E-4
6.130711680E0,1.064129174E-3
6.147593820E0,1.246601343E-3
6.164473764E0,-3.395289183E-3
6.181354085E0,1.724958420E-3
6.198230480E0,4.265621305E-3
6.215117208E0,1.708187163E-3
6.231994926E0,1.254037023E-3
6.248892803E0,9.140372276E-5
6.265767844E0,-1.890197396E-3
6.282645428E0,-2.150997519E-3
6.299534732E0,-6.263785064E-3
6.316409355E0,-2.785697579E-3
6.333291181E0,-3.414124250E-3
6.350170872E0,-1.247577369E-3
6.367039067E0,1.555815339E-3
6.383924260E0,-1.596271992E-3
6.400814103E0,-8.897259831E-4
6.417694128E0,4.610903561E-3
6.434572200E0,7.261335850E-4
6.451453438E0,1.328215003E-4
6.468313698E0,1.180328429E-3
6.485196846E0,1.382790506E-3
6.502093718E0,-3.252096474E-3
6.518969613E0,3.812044859E-3
6.535856393E0,4.894666374E-3
6.552717456E0,-8.007958531E-4
6.569600860E0,1.256033778E-3
6.586481373E0,-1.357525587E-3
6.603359152E0,-1.701831818E-3
6.620244325E0,2.291202545E-3
6.637124167E0,-1.167908311E-3
6.653996705E0,-9.899660945E-4
6.670882601E0,-1.622669399E-3
6.687758181E0,5.204245448E-3
6.704648034E0,-6.393790245E-4
6.721510685E0,1.431912184E-3
6.738410068E0,-1.136556268E-3
6.755291965E0,-2.672523260E-3
6.772182602E0,1.150518656E-4
6.789023443E0,4.570990801E-3
6.805946529E0,-1.734182239E-3
6.822818344E0,5.522459745E-3
6.839698025E0,2.590686083E-3
6.856563788E0,3.915742040E-3
6.873460323E0,-5.420818925E-4
6.890336474E0,5.848012865E-3
6.907223152E0,4.949055612E-3
6.924087024E0,2.177655697E-4
6.940961425E0,-2.325281501E-3
6.957872629E0,2.435922623E-3
6.974724476E0,3.399178386E-4
6.991622040E0,7.532760501E-4
7.008501394E0,-3.955528140E-3
7.025366679E0,1.186214387E-3
7.042246696E0,3.744192421E-3
7.059129732E0,5.258888006E-3
7.076010052E0,2.555243671E-3
7.092890515E0,1.058138907E-3
7.109770348E0,2.721995115E-4
7.126650994E0,3.056310117E-3
7.143530968E0,-1.719169319E-3
7.160410069E0,5.797743797E-4
7.177291783E0,2.840943635E-3
7.194171941E0,-1.401200891E-3
7.211052180E0,3.074698150E-3
7.227932877E0,-2.988651395E-4
7.244813034E0,2.056322992E-3
7.261710467E0,-4.519522190E-4
7.278585070E0,-2.129927278E-3
7.295467953E0,2.832151949E-3
7.312347828E0,5.356259644E-3
7.329228890E0,5.775406957E-3
7.346108234E0,1.166492701E-3
7.362972259E0,-3.593817353E-3
7.379869354E0,-1.390784979E-3
7.396749268E0,1.284107566E-4
7.413627797E0,6.183356047E-3
7.430510102E0,7.633492351E-4
7.447390382E0,-4.710562527E-3
7.464270742E0,4.399232566E-3
7.481148592E0,6.943933666E-3
7.498031750E0,2.167545259E-3
7.514918836E0,-1.434512436E-3
7.531774875E0,-2.064257860E-4
7.548658360E0,3.433667123E-3
7.565534021E0,5.701936781E-3
7.582420233E0,3.072328866E-3
7.599300970E0,2.777524292E-3
7.616179490E0,2.660579979E-3
7.633059646E0,2.693906426E-3
7.649940059E0,-2.501823008E-3
7.666818162E0,8.181184530E-4
7.683702958E0,1.252777874E-3
7.700581164E0,2.459876239E-3
7.717461291E0,4.419185221E-3
7.734352710E0,-1.127623022E-3
7.751239908E0,5.008317530E-3
7.768114826E0,1.868151128E-3
7.784980671E0,-1.528531313E-3
7.801870890E0,-9.088218212E-4
7.818756877E0,2.154670656E-3
7.835641338E0,-2.636395395E-3
7.852517499E0,2.974465489E-3
7.869398175E0,-1.372680068E-3
7.886261822E0,3.147974610E-3
7.903126558E0,2.670601010E-3
7.920037855E0,4.358902574E-3
7.936930556E0,4.092507064E-3
7.953819024E0,-1.833334565E-3
7.970679631E0,-3.830313683E-3
7.987550206E0,2.972543240E-3
8.004447566E0,-4.898756742E-5
8.021283626E0,-1.767620444E-3
8.038186743E0,-3.111965954E-3
8.055077022E0,7.685720921E-4
8.071947456E0,5.381591618E-3
8.088827664E0,4.318840802E-3
8.105708117E0,3.040820360E-3
8.122575610E0,1.034051180E-3
8.139468626E0,-3.740936518E-4
8.156348835E0,-1.847997308E-3
8.173228891E0,-3.904819489E-3
8.190109903E0,-2.385795116E-3
8.206989918E0,6.897374988E-4
8.223859518E0,-1.826249063E-3
8.240758465E0,4.808314145E-3
8.257648540E0,5.077660084E-3
8.274508648E0,1.643560827E-3
8.291388430E0,-6.209760904E-4
8.308283531E0,1.879557967E-3
8.325149996E0,-2.356864512E-3
8.342042779E0,-5.719810724E-5
8.358905806E0,-7.203444839E-4
8.375809035E0,-1.995600760E-3
8.392686924E0,-1.120030880E-3
8.409555720E0,-2.081520855E-3
8.426424708E0,-6.201326847E-3
8.443317286E0,2.446591854E-3
8.460191311E0,-1.516826451E-3
8.477088314E0,-3.407970071E-4
8.493954780E0,3.563165665E-4
8.510832598E0,3.404445946E-3
8.527715543E0,-2.203136683E-4
8.544595752E0,-2.618297935E-3
8.561474669E0,5.294233561E-4
8.578356332E0,3.974065185E-4
8.595236592E0,5.102165043E-3
8.612134227E0,-1.194901764E-3
8.628980622E0,1.840852201E-3
8.645877604E0,6.046965718E-4
8.662757956E0,-7.514879107E-4
8.679637962E0,-2.056822181E-3
8.696518597E0,4.694774747E-3
8.713398704E0,-4.728138447E-5
8.730296603E0,-3.067478538E-3
8.747172825E0,1.702837646E-3
8.764051487E0,-4.725009203E-4
8.780929631E0,3.875441849E-3
8.797818202E0,5.692757666E-3
8.814693994E0,9.471923113E-5
8.831570440E0,2.249769866E-3
8.848454982E0,2.588480711E-3
8.865314673E0,-2.529054880E-3
8.882198178E0,-4.036575556E-4
8.899095578E0,1.136615872E-3
8.915976234E0,2.569623291E-3
8.932857195E0,2.697281539E-3
8.949737293E0,-1.402191818E-3
8.966617491E0,9.402483702E-4
8.983497079E0,4.235178232E-3
9.000357095E0,4.002116621E-3
9.017249186E0,-4.056788981E-3
9.034124440E0,3.504306078E-3
9.051004507E0,-1.222550869E-3
9.067884807E0,-1.900799572E-3
9.084765382E0,8.917897940E-4
9.101662620E0,3.614559770E-3
9.118522281E0,4.640936852E-3
9.135404330E0,4.222273827E-3
9.152275424E0,-1.120865345E-3
9.169166660E0,-6.998032331E-4
9.186046990E0,3.485746682E-3
9.202914341E0,2.454221249E-5
9.219804936E0,2.301186323E-3
9.236698654E0,2.587653697E-3
9.253588923E0,1.531764865E-3
9.270444973E0,6.632775068E-3
9.287349260E0,1.135304570E-3
9.304215318E0,3.725998104E-3
9.321134966E0,1.863807440E-3
9.337969327E0,1.654401422E-3
9.354861895E0,4.504002631E-3
9.371742654E0,1.392439008E-3
9.388623493E0,1.592189074E-3
9.405492064E0,4.583522677E-4
9.422384868E0,2.637915313E-3
9.439261118E0,-1.721136272E-3
9.456145050E0,1.216270030E-3
9.473016144E0,1.734487712E-3
9.489889284E0,5.830958486E-3
9.506772625E0,-2.330310643E-3
9.523652753E0,-2.976223826E-3
9.540519991E0,2.111211419E-3
9.557413496E0,4.642002285E-3
9.574284539E0,6.135940552E-3
9.591189325E0,-6.363540888E-4
9.608038284E0,-5.383566022E-4
9.624924412E0,-1.622967422E-3
9.641797033E0,1.210607588E-3
9.658695003E0,2.841539681E-3
9.675578954E0,6.069533527E-3
9.692455573E0,2.562522888E-3
9.709365811E0,1.947887242E-3
9.726228289E0,-1.123927534E-3
9.743096249E0,-4.077777267E-4
9.759990446E0,-1.457408071E-3
9.776853718E0,1.237653196E-3
9.793751808E0,-3.066331148E-3
9.810631499E0,6.212763488E-3
9.827511881E0,3.627017140E-3
9.844390320E0,-5.503892899E-3
9.861251883E0,-2.245396376E-3
9.878156851E0,-1.758068800E-3
9.895031352E0,-2.832628787E-3
9.911912854E0,2.283528447E-3
9.928794080E0,4.853367805E-3
9.945657382E0,1.642830670E-3
9.962554548E0,-4.048772156E-3
9.979417250E0,-8.633956313E-4
9.996301141E0,1.384839416E-3
1.001318130E1,4.025913775E-3
1.003006186E1,4.424229264E-4
1.004694201E1,6.889767945E-3
1.006382213E1,7.877618074E-3
1.008071644E1,4.037097096E-3
1.009759433E1,-6.359964609E-4
1.011446359E1,-2.490550280E-3
1.013134325E1,-2.680055797E-3
1.014822662E1,1.418754458E-3
1.016508785E1,1.725628972E-4
1.018198423E1,4.027768970E-3
1.019887097E1,3.401331604E-3
1.021575560E1,6.209164858E-3
1.023263697E1,-3.650039434E-4
1.024951924E1,1.595683396E-3
1.026639934E1,6.017677486E-3
1.028325508E1,-2.059996128E-3
1.030016835E1,9.054020047E-4
1.031704054E1,2.789571881E-4
1.033391650E1,1.530870795E-4
1.035080067E1,3.035344183E-3
1.036768610E1,2.364791930E-3
1.038456150E1,3.370687366E-3
1.040144210E1,2.417281270E-3
1.041831952E1,-1.269772649E-3
1.043520312E1,-1.148998737E-3
1.045208271E1,1.815989614E-3
1.046894592E1,4.607476294E-3
1.048582956E1,7.906831801E-3
1.050271142E1,2.101786435E-3
1.051958509E1,1.685552299E-3
1.053646061E1,3.385521472E-3
1.055333559E1,8.035823703E-4
1.057024804E1,3.399878740E-3
1.058712091E1,8.369460702E-4
1.060398903E1,2.215586603E-3
1.062085944E1,2.403788269E-3
1.063775523E1,3.647871315E-3
1.065462899E1,-1.530945301E-4
1.067151580E1,3.395527601E-3
1.068838005E1,1.026734710E-3
1.070527393E1,2.476297319E-3
1.072216667E1,-3.218635917E-3
1.073904216E1,1.805976033E-3
1.075591534E1,-2.163261175E-3
1.077280466E1,1.875646412E-3
1.078967980E1,5.491726100E-3
1.080656330E1,2.430960536E-3
1.082343259E1,8.144974709E-4
1.084031260E1,3.571584821E-3
1.085719311E1,2.714022994E-3
1.087408835E1,7.957518101E-4
1.089096999E1,-6.458386779E-4
1.090783418E1,2.038098872E-3
1.092470337E1,6.413534284E-4
1.094161188E1,1.111894846E-3
1.095847418E1,6.394915283E-3
1.097535803E1,1.356787980E-3
1.099223823E1,-3.496088088E-3
1.100911857E1,1.533932984E-3
1.102599887E1,1.570977271E-3
1.104287228E1,2.249784768E-3
1.105976603E1,5.795210600E-4
1.107665400E1,2.123601735E-3
1.109351654E1,3.501094878E-3
1.111040034E1,2.479091287E-3
1.112728043E1,5.668252707E-4
1.114416089E1,-8.437186480E-4
1.116103910E1,9.381771088E-5
1.117792348E1,3.165751696E-3
1.119481700E1,3.588363528E-3
1.121169556E1,7.492899895E-4
1.122857612E1,4.284605384E-3
1.124544033E1,-2.080693841E-3
1.126233599E1,-2.148300409E-4
1.127922271E1,-5.140185356E-3
1.129608695E1,2.252653241E-3
1.131298145E1,7.378444076E-3
1.132985820E1,1.138322055E-3
1.134673859E1,1.897528768E-3
1.136361848E1,6.139539182E-3
1.138049615E1,3.806568682E-3
1.139737955E1,8.604988456E-3
1.141425928E1,1.826278865E-3
1.143113952E1,3.090903163E-3
1.144800297E1,7.392399013E-3
1.146488516E1,6.898738444E-3
1.148176322E1,9.391009808E-4
1.149864747E1,7.070451975E-4
1.151551293E1,1.869820058E-3
1.153240399E1,-2.752929926E-3
1.154930938E1,-3.466427326E-3
1.156616220E1,2.288930118E-3
1.158303598E1,6.034225225E-3
1.159992852E1,-3.599673510E-4
1.161679593E1,2.741202712E-3
1.163368870E1,6.084792316E-3
1.165056972E1,7.646530867E-4
1.166744963E1,-1.858681440E-3
1.168434752E1,5.437433720E-3
1.170121806E1,2.431988716E-3
1.171810858E1,2.482295036E-3
1.173498471E1,3.146700561E-3
1.175186532E1,3.254659474E-3
1.176874517E1,1.395247877E-3
1.178561750E1,-4.045680165E-3
1.180250620E1,3.856129944E-3
1.181939390E1,3.229103982E-3
1.183625525E1,4.283048213E-3
1.185312138E1,6.280168891E-3
1.187002734E1,3.607735038E-3
1.188690507E1,3.218017519E-3
1.190378968E1,-3.751620650E-3
1.192064911E1,1.044601202E-3
1.193753597E1,7.018573582E-3
1.195441226E1,4.945099354E-3
1.197129722E1,-5.931034684E-4
1.198815474E1,-3.715977073E-4
1.200504267E1,2.558529377E-3
1.202193599E1,5.051493645E-5
1.203883256E1,2.611376345E-3
1.205570664E1,5.972526968E-3
1.207259132E1,2.372808754E-3
1.208945696E1,7.122382522E-4
1.210633713E1,-1.307532191E-3
1.212320464E1,1.319691539E-3
1.214009765E1,2.862565219E-3
1.215697377E1,1.867324114E-3
1.217386165E1,-1.174360514E-3
1.219073610E1,6.435982883E-3
1.220763044E1,-1.696482301E-3
1.222449695E1,1.103445888E-3
1.224139353E1,-3.378540277E-4
1.225825720E1,-1.761667430E-3
1.227515332E1,3.889851272E-3
1.229201525E1,5.832843482E-3
1.230889991E1,6.187282503E-3
1.232579875E1,2.130843699E-3
1.234267304E1,5.537427962E-3
1.235958251E1,-2.092048526E-3
1.237643559E1,8.847489953E-4
1.239331548E1,6.411522627E-4
1.241019656E1,1.170754433E-3
1.242704621E1,7.111608982E-3
1.244394297E1,4.341781139E-3
1.246081986E1,1.524232328E-3
1.247770673E1,5.948618054E-4
1.249458395E1,5.058504641E-3
1.251146402E1,2.892486751E-3
1.252835980E1,2.624087036E-3
1.254522245E1,3.675788641E-3
1.256211861E1,5.638286471E-3
1.257897863E1,4.112072289E-3
1.259586861E1,2.666167915E-3
1.261274600E1,6.429001689E-3
1.262962623E1,5.936816335E-3
1.264650660E1,5.813434720E-3
1.266338666E1,2.793923020E-3
1.268028163E1,5.367249250E-4
1.269714164E1,8.222833276E-4
1.271404087E1,6.028302014E-3
1.273091817E1,-1.878216863E-4
1.274780611E1,-4.063963890E-3
1.276468228E1,3.106102347E-3
1.278156317E1,3.591172397E-3
1.279844263E1,1.249812543E-3
1.281532284E1,-2.029769123E-3
1.283220324E1,7.343098521E-3
1.284908161E1,-1.163087785E-3
1.286596454E1,-2.516299486E-3
1.288284774E1,-8.448287845E-4
1.289972140E1,4.558719695E-3
1.291658730E1,-1.624174416E-3
1.293347168E1,4.393152893E-3
1.295033866E1,8.384883404E-5
1.296723435E1,2.867504954E-3
1.298411219E1,2.219192684E-3
1.300098931E1,3.264926374E-3
1.301789136E1,-6.145238876E-4
1.303476843E1,5.549564958E-4
1.305166544E1,1.944936812E-3
1.306851464E1,1.030310988E-3
1.308539393E1,1.632720232E-4
1.310227420E1,6.156265736E-4
1.311915232E1,1.803092659E-3
1.313603564E1,-1.009702682E-3
1.315291519E1,1.470617950E-3
1.316980640E1,-9.949877858E-4
1.318669250E1,-2.672970295E-4
1.320355342E1,4.696026444E-4
1.322042153E1,-1.273781061E-3
1.323732780E1,1.419954002E-3
1.325420697E1,-1.071318984E-3
1.327109494E1,5.495429039E-3
1.328795458E1,1.331642270E-4
1.330484980E1,-1.345291734E-3
1.332172769E1,-1.637205482E-3
1.333861608E1,5.227595568E-3
1.335551423E1,3.271311522E-3
1.337237315E1,-2.179540694E-3
1.338925369E1,3.991805017E-3
1.340611577E1,1.968704164E-3
1.342299929E1,-2.362132072E-3
1.343988006E1,-7.704570889E-4
1.345675739E1,3.066129982E-3
1.347364335E1,4.794873297E-3
1.349051946E1,-8.173659444E-4
1.350740173E1,-2.819843590E-3
1.352431704E1,-2.728477120E-4
1.354115615E1,9.923428297E-5
1.355804021E1,-1.649565995E-3
1.357492221E1,-1.881122589E-3
1.359180225E1,-8.557885885E-4
1.360868279E1,1.069530845E-3
1.362556304E1,2.521857619E-3
1.364244349E1,-3.562219441E-3
1.365934063E1,-5.099721253E-3
1.367621704E1,3.500990570E-3
1.369309838E1,5.889371037E-3
1.370997822E1,7.401727140E-3
1.372685864E1,2.448543906E-3
1.374373820E1,1.668080688E-3
1.376061971E1,-2.053454518E-4
1.377749937E1,1.318380237E-4
1.379437969E1,-4.856586456E-4
1.381125758E1,-4.448018968E-3
1.382812507E1,-4.440821707E-3
1.384502449E1,-2.483204007E-4
1.386190103E1,-2.568066120E-4
1.387877562E1,-5.522571504E-3
1.389564765E1,-3.402449191E-3
1.391252784E1,-1.862458885E-3
1.392940497E1,1.304328442E-3
1.394629197E1,1.750819385E-3
1.396315702E1,1.894436777E-3
1.398005214E1,1.925610006E-3
1.399694622E1,1.897506416E-3
1.401382388E1,1.868993044E-3
1.403069906E1,1.939617097E-3
1.404758537E1,-9.530112147E-4
1.406444994E1,-1.404590905E-3
1.408133094E1,1.487702131E-3
1.409821100E1,3.736846149E-3
1.411509110E1,-5.984008312E-4
1.413197169E1,-4.085578024E-3
1.414885533E1,-5.712471902E-3
1.416574595E1,-1.298636198E-4
1.418262641E1,-1.028686762E-3
1.419950884E1,7.019862533E-4
1.421637805E1,3.205895424E-3
1.423327133E1,2.483017743E-3
1.425014339E1,2.502351999E-3
1.426703234E1,2.466484904E-3
1.428390369E1,5.414046347E-3
1.430079572E1,1.130677760E-3
1.431766274E1,3.387875855E-3
1.433454900E1,2.627313137E-3
1.435142512E1,-3.286302090E-4
1.436831355E1,3.251716495E-3
1.438515920E1,-2.767592669E-4
1.440205652E1,2.098158002E-3
1.441893243E1,-4.234537482E-4
1.443582082E1,1.011341810E-3
1.445269698E1,5.209155381E-3
1.446957249E1,6.930083036E-4
1.448647553E1,2.312071621E-3
1.450333488E1,5.450248718E-3
1.452023013E1,1.203410327E-3
1.453710162E1,3.466799855E-3
1.455396207E1,-2.089217305E-4
1.457084768E1,9.506270289E-4
1.458774099E1,-2.442777157E-3
1.460461776E1,1.890875399E-3
1.462149979E1,1.373484731E-3
1.463837877E1,-2.768203616E-3
1.465527326E1,6.533116102E-4
1.467215837E1,-6.245449185E-4
1.468901942E1,-7.763132453E-4
1.470591436E1,-7.652714849E-4
1.472278955E1,2.035707235E-3
1.473968171E1,5.376674235E-3
1.475655581E1,1.858815551E-3
1.477343413E1,-2.643756568E-3
1.479029939E1,5.894400179E-3
1.480719222E1,2.428218722E-4
1.482409122E1,-1.661472023E-3
1.484092285E1,3.812544048E-3
1.485782566E1,4.081986845E-3
1.487470093E1,3.005512059E-3
1.489156912E1,1.634739339E-3
1.490846455E1,8.247718215E-4
1.492533404E1,1.380644739E-3
1.494222520E1,6.578981876E-3
1.495909259E1,2.160668373E-3
1.497600292E1,-1.488007605E-3
1.499287953E1,3.846056759E-3
1.500976052E1,-1.207992435E-3
1.502662532E1,-7.932335138E-4
1.504350378E1,-1.501739025E-4
1.506038711E1,-1.837112010E-3
1.507726733E1,-2.148851752E-3
1.509414781E1,2.992339432E-3
1.511102599E1,-4.350639880E-3
1.512790934E1,-2.737864852E-4
1.514480484E1,1.030169427E-3
1.516170165E1,-5.252510309E-4
1.517856376E1,2.240806818E-3
1.519544295E1,-2.380385995E-4
1.521230772E1,5.203165114E-3
1.522920443E1,1.952767372E-3
1.524608406E1,1.497663558E-3
1.526294703E1,2.541489899E-3
1.527984273E1,5.599662662E-3
1.529672522E1,5.988977849E-3
1.531358820E1,1.991018653E-4
1.533048522E1,-7.703736424E-3
1.534736354E1,-7.300078869E-4
1.536421315E1,9.543150663E-4
1.538111345E1,1.146793365E-3
1.539799090E1,5.271926522E-3
1.541487366E1,1.267291605E-3
1.543175601E1,2.466924489E-3
1.544863352E1,8.444413543E-4
1.546550997E1,1.185432076E-3
1.548241664E1,-1.684784889E-3
1.549927742E1,1.926951110E-3
1.551617258E1,-5.598068237E-4
1.553303139E1,7.949024439E-4
1.554991221E1,2.165168524E-3
1.556679882E1,2.386070788E-3
1.558367564E1,4.113666713E-3
1.560055467E1,2.616323531E-3
1.561743298E1,2.402901649E-3
1.563433705E1,7.018595934E-4
1.565119488E1,2.230301499E-3
1.566808890E1,6.474800408E-3
1.568495509E1,-9.744688869E-4
1.570185159E1,6.074398756E-3
1.571872776E1,8.167549968E-4
1.573561448E1,1.073688269E-3
1.575249218E1,-4.739351571E-3
1.576936718E1,-1.629836857E-3
1.578625486E1,1.101940870E-5
1.580312140E1,-2.612695098E-4
1.582002108E1,-2.751350403E-4
1.583686155E1,3.044784069E-3
1.585375670E1,4.220716655E-3
1.587063858E1,-2.908632159E-4
1.588752272E1,-2.784684300E-3
1.590437806E1,1.520000398E-3
1.592128202E1,3.602281213E-4
1.593815855E1,4.808917642E-3
1.595506195E1,-2.650149167E-3
1.597192441E1,3.075823188E-4
1.598881054E1,4.772968590E-3
1.600570019E1,2.444125712E-3
1.602257377E1,9.367689490E-4
1.603944318E1,1.817822456E-3
1.605632352E1,3.831088543E-5
1.607320395E1,-1.423850656E-3
1.609008413E1,-5.237981677E-4
1.610696449E1,-2.579696476E-3
1.612384801E1,-6.809830666E-6
1.614072983E1,4.509262741E-3
1.615762324E1,-1.725018024E-3
1.617449705E1,-2.702251077E-3
1.619137994E1,2.366989851E-3
1.620824009E1,8.272379637E-4
1.622512631E1,3.536082804E-3
1.624200321E1,2.122931182E-3
1.625889504E1,-1.036174595E-3
1.627578727E1,-2.618320286E-3
1.629266096E1,3.363937140E-5
1.630953904E1,5.107149482E-4
1.632642241E1,1.029275358E-3
1.634328965E1,4.928335547E-4
1.636016857E1,5.588755012E-3
1.637704561E1,3.356054425E-3
1.639393228E1,-5.106374621E-3
1.641080217E1,5.703866482E-4
1.642768958E1,1.451909542E-3
1.644457057E1,-3.636687994E-3
1.646146381E1,7.652565837E-4
1.647834511E1,6.638757885E-3
1.649522409E1,-5.723237991E-4
1.651211161E1,1.326106489E-3
1.652896330E1,-1.345992088E-3
1.654585628E1,-3.451243043E-3
1.656273200E1,-6.066195667E-3
1.657961198E1,-3.591276705E-3
1.659649237E1,-8.443072438E-4
1.661337248E1,4.243180156E-3
1.663026065E1,2.921447158E-4
1.664715648E1,3.735221922E-3
1.666403148E1,-9.511634707E-4
1.668090331E1,1.139566302E-4
1.669778874E1,1.497939229E-3
1.671465318E1,-3.407664597E-3
1.673154842E1,1.067534089E-3
1.674842865E1,-1.093812287E-3
1.676529681E1,1.471802592E-3
1.678218771E1,1.895293593E-3
1.679906231E1,-9.803026915E-4
1.681595359E1,1.593343914E-3
1.683281320E1,-1.998469234E-3
1.684968752E1,2.623789012E-3
1.686657702E1,3.858879209E-4
1.688345708E1,-1.099526882E-3
1.690033762E1,1.534685493E-3
1.691721777E1,1.824520528E-3
1.693411547E1,-9.474903345E-4
1.695098944E1,-1.289553940E-3
1.696787308E1,-1.313708723E-3
1.698474855E1,-6.857961416E-4
1.700163692E1,-1.148059964E-4
1.701849576E1,1.740947366E-3
1.703537955E1,2.059131861E-3
1.705225997E1,-8.338615298E-4
1.706913859E1,1.686587930E-3
1.708601723E1,2.094969153E-3
1.710289147E1,-4.835553467E-3
1.711979738E1,1.135244966E-3
1.713667896E1,-9.517148137E-4
1.715354386E1,1.749165356E-3
1.717042710E1,3.261938691E-3
1.718729876E1,5.552396178E-4
1.720418217E1,-2.084076405E-3
1.722105923E1,2.738662064E-3
1.723794596E1,2.306714654E-3
1.725482322E1,-1.876577735E-3
1.727170204E1,4.510112107E-3
1.728858468E1,2.478316426E-3
1.730546316E1,3.297142684E-3
1.732232972E1,2.266600728E-3
1.733922470E1,-6.656117737E-3
1.735610462E1,-3.334134817E-4
1.737298534E1,-1.179151237E-3
1.738986515E1,5.169436336E-4
1.740674005E1,-2.113051713E-3
1.742364353E1,4.412084818E-4
1.744052391E1,-9.740069509E-4
1.745739777E1,5.853176117E-4
1.747428072E1,3.127902746E-3
1.749116482E1,1.266710460E-3
1.750802421E1,-1.194551587E-4
1.752489667E1,7.804557681E-3
1.754178763E1,4.316441715E-3
1.755866847E1,5.595773458E-3
1.757554769E1,-1.159325242E-3
1.759242880E1,7.214918733E-4
1.760932603E1,5.043275654E-3
1.762618630E1,-4.211522639E-3
1.764308284E1,1.507721841E-3
1.765996418E1,3.567792475E-3
1.767684391E1,-1.340955496E-3
1.769372401E1,-2.039305866E-3
1.771059635E1,-3.840349615E-3
1.772748525E1,-7.895380259E-5
1.774436493E1,-1.843214035E-3
1.776124187E1,1.942694187E-3
1.777811140E1,2.498082817E-3
1.779500635E1,-3.512054682E-4
1.781186861E1,2.125054598E-3
1.782875248E1,1.349255443E-3
1.784563279E1,-3.430269659E-3
1.786251317E1,4.850998521E-4
1.787939303E1,5.223482847E-3
1.789627348E1,4.118293524E-3
1.791316945E1,-6.983429193E-5
1.793004779E1,5.161836743E-3
1.794692797E1,1.970797777E-3
1.796380320E1,-2.225786448E-4
1.798069814E1,2.336904407E-3
1.799756121E1,-4.210032523E-3
1.801443536E1,2.407521009E-3
1.803131564E1,9.710192680E-3
1.804817908E1,4.946872592E-3
1.806506315E1,-2.761699259E-3
1.808195427E1,8.186995983E-4
1.809884066E1,-4.435032606E-4
1.811573158E1,2.906270325E-3
1.813261120E1,-1.309067011E-4
1.814948740E1,-7.219687104E-4
1.816637397E1,2.100013196E-3
1.818324851E1,-1.451708376E-3
1.820013224E1,2.028770745E-3
1.821700845E1,5.442656577E-3
1.823389495E1,1.872219145E-3
1.825077292E1,6.079003215E-4
1.826765382E1,1.149997115E-3
1.828451296E1,2.325668931E-3
1.830140080E1,3.708422184E-3
1.831828032E1,5.804672837E-3
1.833516072E1,-9.051486850E-4
1.835204076E1,3.995411098E-3
1.836892112E1,5.873180926E-3
1.838579822E1,3.195315599E-3
1.840270197E1,-5.367398262E-5
1.841957338E1,4.116058350E-3
1.843645632E1,4.612743855E-3
1.845333256E1,2.027302980E-5
1.847020692E1,3.297470510E-3
1.848708022E1,-2.816393971E-4
1.850395981E1,9.373575449E-4
1.852084029E1,2.231135964E-3
1.853772689E1,2.448633313E-3
1.855460413E1,1.311302185E-3
1.857148436E1,1.113265753E-3
1.858836482E1,5.159154534E-3
1.860524608E1,-5.240015686E-3
1.862210376E1,3.787130117E-5
1.863901086E1,-3.923997283E-3
1.865590805E1,-1.014769077E-3
1.867277985E1,1.682087779E-3
1.868965976E1,-3.770746291E-3
1.870652747E1,1.911595464E-4
1.872341024E1,1.986190677E-3
1.874029247E1,-1.785822213E-3
1.875717960E1,-6.507113576E-4
1.877406133E1,4.743129015E-3
1.879090813E1,-3.165602684E-4
1.880781151E1,-2.186179161E-3
1.882468826E1,1.707747579E-3
1.884156867E1,-6.696805358E-4
1.885843934E1,-2.185031772E-3
1.887532956E1,5.619972944E-3
1.889222686E1,-1.979455352E-3
1.890910367E1,1.604035497E-3
1.892596970E1,6.211854517E-3
1.894286458E1,2.812221646E-3
1.895974437E1,3.354154527E-3
1.897662479E1,-5.360916257E-4
1.899348749E1,-2.245187759E-3
1.901037174E1,1.622773707E-3
1.902726181E1,2.215340734E-3
1.904413186E1,-6.478950381E-4
1.906101056E1,4.731371999E-3
1.907789321E1,2.694614232E-3
1.909478978E1,1.259125769E-3
1.911166702E1,2.194568515E-3
1.912854702E1,1.216344535E-3
1.914541044E1,-7.527545094E-4
1.916230177E1,3.025241196E-3
1.917918956E1,-4.919171333E-4
1.919607052E1,1.871414483E-3
1.921294826E1,1.066826284E-3
1.922982882E1,2.106226981E-3
1.924669478E1,4.009783268E-3
1.926358571E1,3.618463874E-3
1.928045633E1,-1.658216119E-3
1.929733258E1,2.812951803E-3
1.931421919E1,5.225509405E-3
1.933109673E1,3.772586584E-3
1.934797679E1,2.336584032E-3
1.936485037E1,9.654462337E-4
1.938174949E1,1.917786896E-3
1.939863476E1,3.210470080E-3
1.941551185E1,2.284042537E-3
1.943239207E1,2.106696367E-3
1.944926826E1,2.003334463E-3
1.946615241E1,2.017587423E-3
1.948301704E1,4.800088704E-3
1.949990209E1,-3.496788442E-3
1.951677602E1,-7.232278585E-5
1.953366305E1,4.523299634E-3
1.955053991E1,6.296187639E-4
1.956741869E1,-4.107132554E-3
1.958431351E1,2.787098289E-3
1.960119478E1,3.303013742E-3
1.961807904E1,3.276482224E-3
1.963495454E1,1.029744744E-3
1.965183638E1,-1.117669046E-3
1.966874284E1,-5.504265428E-3
1.968559181E1,-6.066635251E-3
1.970248543E1,-9.330511093E-4
1.971935339E1,2.789251506E-3
1.973622323E1,3.322415054E-3
1.975311663E1,-1.703456044E-3
1.976997723E1,1.612544060E-3
1.978686715E1,-1.320540905E-4
1.980373088E1,7.670000196E-4
1.982062435E1,2.062298357E-3
1.983750723E1,2.230487764E-3
1.985438204E1,-6.803497672E-4
1.987126799E1,-2.166323364E-3
1.988815676E1,-2.315834165E-3
1.990502742E1,1.638159156E-3
1.992191625E1,3.207094967E-3
1.993879585E1,-6.056278944E-4
1.995568401E1,-2.228125930E-3
1.997255772E1,5.197450519E-4
1.998942704E1,5.005039275E-3
2.000630738E1,-3.002315760E-3
2.002316900E1,5.647689104E-4
2.004006762E1,-1.141577959E-4
2.005694794E1,5.062460899E-3
2.007383135E1,5.752444267E-3
2.009071865E1,1.886039972E-3
2.010757346E1,-5.149543285E-4
2.012446646E1,-8.913427591E-4
2.014135910E1,3.685183823E-3
2.015823108E1,2.086088061E-4
2.017509583E1,3.087453544E-3
2.019198730E1,1.283183694E-3
2.020885210E1,3.877431154E-4
2.022576517E1,-2.040050924E-3
2.024262796E1,-2.316527069E-3
2.025950816E1,5.768723786E-3
2.027639112E1,2.951867878E-3
2.029327218E1,-3.685876727E-4
2.031015216E1,4.991680384E-3
2.032703234E1,-1.576542854E-5
2.034391258E1,3.205373883E-3
2.036080279E1,-3.291323781E-3
2.037767051E1,-7.149502635E-4
2.039457431E1,-9.874328971E-4
2.041144822E1,1.874923706E-3
2.042832767E1,2.338796854E-3
2.044518480E1,-3.847554326E-4
2.046209684E1,9.995773435E-4
2.047894884E1,1.183494925E-3
2.049583779E1,2.277217805E-3
2.051271534E1,1.244939864E-3
2.052959432E1,1.078791916E-3
2.054647590E1,2.221211791E-3
2.056335590E1,6.467252970E-3
2.058025369E1,1.338653266E-3
2.059713099E1,-5.519837141E-4
2.061401143E1,-8.588358760E-4
2.063089105E1,8.642971516E-4
2.064777147E1,-6.748586893E-4
2.066464996E1,-3.736302257E-3
2.068153189E1,1.713283360E-3
2.069840901E1,2.601660788E-3
2.071529492E1,5.616031587E-3
2.073217327E1,-7.727071643E-4
2.074903587E1,3.361023962E-3
2.076591531E1,1.701906323E-3
2.078279954E1,1.633465290E-3
2.079967966E1,8.765831590E-4
2.081656013E1,5.400851369E-3
2.083344027E1,-9.026601911E-4
2.085033567E1,-6.808042526E-4
2.086721322E1,-2.096593380E-5
2.088409499E1,5.299985409E-3
2.090097150E1,1.420386136E-3
2.091785719E1,-3.255158663E-4
2.093473612E1,1.228213310E-3
2.095162049E1,1.385264099E-3
2.096847485E1,2.138689160E-4
2.098535611E1,-6.187260151E-4
2.100223975E1,-7.581710815E-4
2.101912641E1,-3.011338413E-3
2.103600064E1,-2.282679081E-3
2.105288402E1,4.791319370E-3
2.106977353E1,5.003809929E-5
2.108666930E1,-4.638366401E-3
2.110352129E1,2.786375582E-3
2.112041921E1,-1.257851720E-3
2.113729478E1,-5.604326725E-5
2.115418242E1,5.338817835E-3
2.117105701E1,3.243349493E-3
2.118794013E1,2.206861973E-5
2.120481439E1,-4.972070456E-4
2.122170604E1,6.418921053E-3
2.123856233E1,3.364056349E-3
2.125544690E1,2.870641649E-3
2.127232732E1,3.899939358E-3
2.128920768E1,7.241219282E-5
2.130609393E1,-4.955232143E-4
2.132297024E1,-1.748055220E-3
2.133984523E1,9.583383799E-4
2.135674529E1,6.413683295E-4
2.137360759E1,-1.591920853E-3
2.139050306E1,9.496361017E-4
2.140740873E1,1.357249916E-3
2.142425724E1,-3.995671868E-4
2.144111430E1,-1.772448421E-3
2.145801102E1,5.010783672E-3
2.147489045E1,3.095567226E-4
2.149177076E1,-5.044966936E-3
2.150865097E1,1.783758402E-3
2.152553132E1,-3.665685654E-5
2.154241143E1,1.430958509E-3
2.155930391E1,3.893643618E-3
2.157617496E1,4.929944873E-3
2.159306601E1,3.956258297E-4
2.160994625E1,-2.200379968E-4
2.162680984E1,3.749586642E-3
2.164369842E1,-7.763132453E-4
2.166059077E1,5.471602082E-3
2.167746483E1,-2.370931208E-3
2.169434823E1,-6.564855576E-4
2.171122364E1,2.596393228E-3
2.172809551E1,2.991616726E-3
2.174496278E1,4.707358778E-3
2.176185179E1,3.164149821E-3
2.177874025E1,2.899505198E-3
2.179561363E1,2.727866173E-3
2.181249576E1,4.569016397E-3
2.182939330E1,2.914689481E-3
2.184625350E1,5.665861070E-3
2.186312964E1,-9.392946959E-4
2.188002393E1,-1.956947148E-3
2.189691566E1,-2.131104469E-3
2.191379139E1,1.923449337E-3
2.193067157E1,-4.165917635E-4
2.194754827E1,4.543207586E-3
2.196442098E1,4.048675299E-3
2.198129513E1,2.864412963E-3
2.199817717E1,4.479616880E-3
2.201506207E1,5.219154060E-3
2.203193915E1,-1.082561910E-3
2.204882292E1,3.835357726E-3
2.206570957E1,2.805247903E-3
2.208259798E1,2.661898732E-3
2.209945142E1,2.325922251E-4
2.211635471E1,3.436654806E-4
2.213322862E1,-1.984074712E-3
2.215011925E1,3.534801304E-3
2.216699560E1,1.461617649E-3
2.218387530E1,2.197280526E-3
2.220074954E1,-5.801096559E-4
2.221762312E1,-1.030027866E-3
2.223450226E1,7.729969919E-3
2.225138260E1,3.261432052E-3
2.226826900E1,1.355551183E-3
2.228512719E1,5.249604583E-3
2.230202666E1,9.687244892E-5
2.231890233E1,-1.811809838E-3
2.233577677E1,1.873724163E-3
2.235266139E1,-4.573538899E-4
2.236955606E1,2.024628222E-3
2.238642677E1,-4.876405001E-4
2.240328462E1,3.946244717E-3
2.242019887E1,2.873726189E-3
2.243707541E1,2.767570317E-3
2.245394628E1,-1.345604658E-3
2.247082599E1,2.164006233E-3
2.248769318E1,-1.352965832E-3
2.250458648E1,-2.013601363E-3
2.252146546E1,1.932345331E-3
2.253834697E1,-1.501977444E-3
2.255524479E1,-1.998364925E-3
2.257212128E1,7.649883628E-4
2.258900158E1,2.297416329E-3
2.260589529E1,-3.156587481E-4
2.262276826E1,1.082099974E-3
2.263963903E1,-5.732700229E-4
2.265652336E1,4.993535578E-3
2.267340273E1,1.745834947E-3
2.269028311E1,1.378811896E-3
2.270713269E1,1.271538436E-3
2.272403027E1,5.227677524E-3
2.274090689E1,2.980537713E-3
2.275779507E1,3.763660789E-4
2.277466920E1,-6.470605731E-4
2.279155080E1,7.968068123E-3
2.280844866E1,4.518821836E-3
2.282530844E1,1.694716513E-3
2.284221866E1,1.777395606E-3
2.285907841E1,1.367211342E-3
2.287597389E1,5.313262343E-3
2.289284625E1,-1.045450568E-3
2.290970604E1,-7.989779115E-4
2.292661158E1,2.261638641E-3
2.294346975E1,3.754414618E-3
2.296035213E1,-1.186966896E-3
2.297723519E1,2.189151943E-3
2.299411408E1,3.838837147E-3
2.301099440E1,2.962484956E-3
2.302787335E1,6.943307817E-3
2.304477206E1,-5.633011460E-4
2.306164907E1,3.407649696E-3
2.307852521E1,6.999738514E-3
2.309541168E1,1.652970910E-3
2.311228976E1,1.414380968E-3
2.312917007E1,-2.642981708E-3
2.314605035E1,-1.011282206E-3
2.316293321E1,1.044780016E-3
2.317981086E1,5.421131849E-3
2.319667130E1,-8.802786469E-4
2.321356013E1,3.374062479E-3
2.323043813E1,1.707494259E-3
2.324731707E1,1.376330853E-3
2.326419572E1,1.306355000E-3
2.328107755E1,3.535680473E-3
2.329797971E1,4.536971450E-3
2.331485275E1,1.081824303E-3
2.333172755E1,-1.736454666E-3
2.334861410E1,2.018958330E-3
2.336547638E1,4.104077816E-4
2.338236202E1,3.524027765E-3
2.339925534E1,-1.274496317E-3
2.341613142E1,9.545683861E-4
2.343299780E1,-3.341138363E-3
2.344988092E1,-3.324009478E-3
2.346676139E1,1.889437437E-3
2.348364165E1,5.556106567E-3
2.350052191E1,-8.452907205E-4
2.351740207E1,1.125238836E-3
2.353429937E1,1.335747540E-3
2.355117701E1,1.492679119E-3
2.356805697E1,1.516833901E-3
2.358492077E1,2.721317112E-3
2.360180030E1,1.773387194E-3
2.361869612E1,-3.003567457E-3
2.363558565E1,5.042754114E-3
2.365245224E1,4.308596253E-4
2.366932629E1,-1.434281468E-3
2.368620186E1,3.449045122E-3
2.370308264E1,5.934692919E-3
2.371996513E1,4.540354013E-3
2.373685020E1,-9.498074651E-4
2.375372896E1,2.358622849E-3
2.377060277E1,2.861738205E-3
2.378751079E1,-2.236388624E-3
2.380436375E1,2.202779055E-3
2.382125646E1,1.699864864E-3
2.383814534E1,5.646847188E-3
2.385502062E1,2.153664827E-3
2.387190763E1,2.681255341E-3
2.388877908E1,6.738387048E-3
2.390566506E1,3.317318857E-3
2.392253704E1,6.811581552E-3
2.393940865E1,1.567445695E-3
2.395628557E1,1.429893076E-3
2.397317236E1,-1.492843032E-3
2.399004820E1,-3.047585487E-3
2.400691671E1,-1.039691269E-3
2.402381339E1,-7.604435086E-4
2.404068464E1,5.090989172E-3
2.405759224E1,1.056492329E-4
2.407446452E1,1.059949398E-3
2.409134481E1,1.336768270E-3
2.410820875E1,-5.044862628E-4
2.412508881E1,-1.882411540E-3
2.414198580E1,-6.068684161E-3
2.415886152E1,1.425407827E-3
2.417573276E1,8.303344250E-3
2.419261274E1,-5.280673504E-4
2.420949332E1,-1.196525991E-3
2.422637313E1,2.023890615E-3
2.424324056E1,1.351237297E-3
2.426011887E1,2.404510975E-3
2.427702724E1,-1.526921988E-3
2.429391189E1,-4.631504416E-4
2.431078574E1,-3.877967596E-3
2.432766884E1,-2.578042448E-3
2.434454905E1,4.557214677E-3
2.436141226E1,5.596101284E-3
2.437830900E1,-1.152940094E-3
2.439518948E1,7.055848837E-4
2.441206971E1,-9.763687849E-4
2.442893265E1,-2.365969121E-3
2.444581658E1,-4.277765751E-3
2.446268359E1,5.183681846E-3
2.447957694E1,-3.280490637E-4
2.449645699E1,-1.143038273E-3
2.451332072E1,3.452181816E-3
2.453023508E1,1.187264919E-3
2.454711295E1,3.732807934E-3
2.456399033E1,2.298682928E-3
2.458086786E1,2.050742507E-3
2.459775476E1,3.167338669E-3
2.461463549E1,3.942273557E-3
2.463151178E1,2.192996442E-3
2.464839281E1,7.190555334E-5
2.466524032E1,4.305094481E-4
2.468214309E1,-1.282609999E-3
2.469901704E1,-1.572310925E-3
2.471590382E1,9.246170521E-5
2.473277990E1,-1.407660544E-3
2.474966215E1,-1.714490354E-3
2.476654530E1,-6.920322776E-4
2.478346068E1,1.377664506E-3
2.480031276E1,-2.362973988E-3
2.481719761E1,1.095414162E-3
2.483407682E1,4.605144262E-3
2.485095651E1,1.082874835E-3
2.486783707E1,6.153136492E-4
2.488471639E1,-3.549396992E-3
2.490159200E1,9.889528155E-4
2.491846433E1,1.746125519E-3
2.493534086E1,4.730664194E-3
2.495222733E1,5.194783211E-3
2.496908354E1,-2.446047962E-3
2.498598474E1,1.085221767E-3
2.500285414E1,1.539066434E-3
2.501976790E1,1.089155674E-3
2.503663110E1,-3.517538309E-3
2.505351969E1,-7.854625583E-4
2.507039585E1,-5.539812148E-3
2.508728233E1,3.604769707E-3
2.510414372E1,-8.827075362E-4
2.512103629E1,-4.500761628E-3
2.513791907E1,-3.152862191E-4
2.515478825E1,1.517869532E-3
2.517166758E1,1.800186932E-3
2.518854785E1,3.588072956E-3
2.520542817E1,3.074042499E-3
2.522230843E1,-5.123339593E-3
2.523917594E1,-3.465563059E-3
2.525608567E1,8.682459593E-4
2.527294571E1,-3.653831780E-3
2.528984377E1,8.607059717E-4
2.530672348E1,2.692878246E-3
2.532359383E1,-1.033589244E-3
2.534048424E1,8.403137326E-4
2.535733433E1,-4.257947206E-3
2.537424463E1,3.753073514E-3
2.539112458E1,-4.964731634E-3
2.540797518E1,7.205381989E-4
2.542487858E1,-5.323551595E-3
2.544174616E1,-2.217084169E-3
2.545863605E1,-3.603287041E-3
2.547550986E1,-3.125213087E-3
2.549239470E1,1.020304859E-3
2.550927610E1,-2.442829311E-3
2.552616529E1,-1.852728426E-3
2.554304916E1,2.365984023E-3
2.555992761E1,-2.280987799E-3
2.557680773E1,2.188697457E-3
2.559368576E1,1.647241414E-3
2.561056808E1,1.542150974E-3
2.562745769E1,-2.553857863E-3
2.564431093E1,-3.143288195E-3
2.566119536E1,-2.125568688E-3
2.567807520E1,-1.943856478E-3
2.569495561E1,2.205565572E-3
2.571183580E1,-1.317560673E-3
2.572871647E1,6.194189191E-4
2.574561346E1,1.474156976E-3
2.576249085E1,-1.361258328E-3
2.577936826E1,5.293168128E-3
2.579625119E1,-8.239150047E-4
2.581313113E1,1.100927591E-3
2.583001131E1,1.376174390E-3
2.584689201E1,1.397453249E-3
2.586377209E1,1.381516457E-3
2.588065074E1,-1.457415521E-3
2.589753373E1,-8.172541857E-5
2.591438229E1,2.371139824E-3
2.593127687E1,1.585267484E-3
2.594816189E1,4.412516952E-3
2.596502623E1,-1.027241349E-3
2.598192018E1,-6.773769855E-4
2.599879632E1,-2.778135240E-3
2.601570136E1,-3.081507981E-3
2.603257458E1,-3.193303943E-3
2.604945474E1,-3.263041377E-3
2.606633116E1,3.692381084E-3
2.608321042E1,1.850590110E-3
2.610009284E1,-1.277498901E-3
2.611697620E1,2.970434725E-3
2.613383910E1,-1.066692173E-3
2.615072232E1,-4.569664598E-3
2.616760135E1,-2.246804535E-3
2.618448286E1,-1.849196851E-3
2.620136329E1,1.207523048E-3
2.621824331E1,4.602946341E-3
2.623514120E1,-3.618031740E-3
2.625201778E1,1.605778933E-3
2.626887727E1,1.776501536E-3
2.628578220E1,4.228949547E-5
2.630266238E1,1.538656652E-3
2.631952966E1,3.626964986E-3
2.633642486E1,2.171017230E-3
2.635328331E1,1.922614872E-3
2.637018362E1,1.958437264E-3
2.638705581E1,1.972377300E-3
2.640392865E1,8.066371083E-4
2.642079225E1,1.696169376E-3
2.643767579E1,-9.976103902E-4
2.645456408E1,4.997365177E-3
2.647145019E1,2.316780388E-3
2.648832756E1,1.890301704E-3
2.650520853E1,-2.150990069E-3
2.652209769E1,1.307383180E-3
2.653897861E1,1.847401261E-3
2.655586683E1,2.985931933E-3
2.657273926E1,-8.645281196E-4
2.658962289E1,4.043206573E-4
2.660648578E1,3.519743681E-3
2.662336656E1,4.842057824E-4
2.664024980E1,-2.229474485E-3
2.665713436E1,1.394048333E-3
2.667399885E1,-3.543719649E-4
2.669089376E1,5.457848310E-4
2.670777098E1,1.835905015E-3
2.672466815E1,3.135874867E-3
2.674152784E1,1.141004264E-3
2.675841237E1,2.091519535E-3
2.677530559E1,-7.277578115E-4
2.679218666E1,6.142854691E-4
2.680906601E1,-2.119541168E-3
2.682594685E1,2.691738307E-3
2.684282669E1,-3.579661250E-3
2.685970688E1,-1.618146896E-3
2.687657058E1,-2.470016479E-3
2.689345055E1,-1.475475729E-3
2.691033399E1,-2.423070371E-3
2.692721372E1,-2.635858953E-3
2.694409464E1,-9.907633066E-4
2.696097138E1,-4.305861890E-3
2.697785851E1,1.018702984E-3
2.699475179E1,1.218691468E-4
2.701162964E1,1.736059785E-3
2.702850980E1,-1.992247999E-3
2.704537472E1,-1.498751342E-3
2.706226817E1,1.537404954E-3
2.707913350E1,8.783191442E-4
2.709603467E1,1.887679100E-3
2.711289401E1,9.786933661E-4
2.712977716E1,1.542195678E-4
2.714665758E1,-1.120202243E-3
2.716353767E1,4.595555365E-3
2.718041815E1,6.677061319E-4
2.719729804E1,1.896642148E-3
2.721417881E1,2.103358507E-3
2.723105859E1,2.156503499E-3
2.724793814E1,-1.864776015E-3
2.726481912E1,-2.493195236E-3
2.728169955E1,3.329843283E-3
2.729858130E1,5.298718810E-3
2.731547540E1,-2.706125379E-4
2.733235466E1,6.502643228E-4
2.734923473E1,7.669776678E-4
2.736611047E1,-5.172148347E-3
2.738297564E1,-1.310482621E-4
2.739986451E1,-1.194573939E-3
2.741674139E1,-2.506688237E-3
2.743361846E1,-3.860853612E-3
2.745050518E1,-2.709776163E-5
2.746738226E1,3.983311355E-3
2.748426589E1,3.465868533E-3
2.750115276E1,-1.833796501E-3
2.751802338E1,-3.785520792E-3
2.753491714E1,2.923190594E-3
2.755179304E1,2.218827605E-3
2.756867986E1,3.305442631E-3
2.758554253E1,-6.254762411E-4
2.760241974E1,1.727327704E-3
2.761930100E1,-2.002105117E-3
2.763617741E1,2.836436033E-4
2.765304510E1,1.748077571E-3
2.766994524E1,1.942284405E-3
2.768682313E1,-3.836691380E-3
2.770372578E1,2.287454903E-3
2.772058337E1,3.049671650E-4
2.773747988E1,-1.164384186E-3
2.775435473E1,1.556649804E-3
2.777124622E1,8.457824588E-4
2.778812089E1,-1.028917730E-3
2.780498849E1,1.576445997E-3
2.782187327E1,-2.105250955E-3
2.783876617E1,-3.426663578E-3
2.785564533E1,-1.202091575E-3
2.787252991E1,1.434564590E-3
2.788938394E1,1.063793898E-4
2.790626883E1,5.618333817E-4
2.792313547E1,-6.316497922E-3
2.794002607E1,-4.026964307E-4
2.795690473E1,6.198808551E-4
2.797378405E1,1.913629472E-3
2.799068750E1,2.075307071E-3
2.800754752E1,2.074137330E-3
2.802444237E1,7.830321789E-3
2.804131296E1,1.052752137E-3
2.805820040E1,-1.306086779E-5
2.807508479E1,1.614667475E-3
2.809194856E1,6.278529763E-4
2.810881874E1,5.419105291E-4
2.812571204E1,2.706930041E-3
2.814259229E1,-9.858757257E-4
2.815947261E1,2.111718059E-4
2.817634334E1,2.688594162E-3
2.819325083E1,-3.824010491E-4
2.821012471E1,4.319868982E-3
2.822703488E1,1.035712659E-3
2.824388741E1,3.419615328E-3
2.826076473E1,-9.489059448E-4
2.827764885E1,-2.761319280E-3
2.829452900E1,-1.865550876E-3
2.831140844E1,2.394907176E-3
2.832829430E1,1.861549914E-3
2.834515253E1,2.938777208E-3
2.836204923E1,3.661639988E-3
2.837891262E1,-8.570328355E-4
2.839579529E1,1.388743520E-3
2.841267656E1,-4.036381841E-3
2.842955644E1,-4.236042500E-3
2.844643681E1,1.554794610E-3
2.846331667E1,-2.294652164E-3
2.848021458E1,6.783008575E-5
2.849709143E1,-1.393638551E-3
2.851397159E1,-1.537837088E-3
2.853084903E1,-1.503467560E-3
2.854773293E1,-1.435227692E-3
2.856461238E1,1.546576619E-3
2.858147533E1,1.755654812E-4
2.859835442E1,2.957120538E-3
2.861522943E1,-3.633521497E-3
2.863211938E1,1.065954566E-4
2.864900000E1,1.965612173E-4
2.866587689E1,8.555352688E-4
2.868278079E1,-9.085163474E-4
2.869965450E1,5.946978927E-4
2.871653413E1,-9.328499436E-4
2.873341531E1,6.418749690E-4
2.875029508E1,-9.336769581E-4
2.876717111E1,-2.271525562E-3
2.878405943E1,1.659087837E-3
2.880093236E1,3.351002932E-3
2.881782005E1,2.449840307E-3
2.883468379E1,2.241022885E-3
2.885157815E1,5.108341575E-3
2.886844208E1,6.693251431E-3
2.888530858E1,-2.722442150E-5
2.890219234E1,7.109045982E-4
2.891907910E1,-2.842769027E-4
2.893596709E1,2.946585417E-3
2.895284412E1,-1.672491431E-3
2.896971865E1,-6.397530437E-3
2.898661889E1,-1.890331507E-3
2.900349478E1,5.971863866E-4
2.902037983E1,-1.924537122E-3
2.903724538E1,-4.016511142E-3
2.905414000E1,2.888515592E-4
2.907099962E1,-1.935146749E-3
2.908787621E1,-1.154549420E-3
2.910476617E1,1.967258751E-3
2.912164696E1,2.451926470E-3
2.913852684E1,2.779513597E-4
2.915540721E1,2.195559442E-3
2.917228820E1,-4.503957927E-3
2.918918180E1,1.497097313E-3
2.920604482E1,-1.673154533E-3
2.922293510E1,-3.894291818E-3
2.923981751E1,-4.194602370E-3
2.925670278E1,5.580432713E-3
2.927357988E1,4.759564996E-3
2.929046520E1,2.872541547E-3
2.930734424E1,-3.645569086E-4
2.932422325E1,5.010895431E-3
2.934109963E1,3.954596817E-3
2.935798255E1,5.610503256E-3
2.937485072E1,2.908274531E-3
2.939173077E1,1.445606351E-3
2.940861092E1,5.422681570E-4
2.942548726E1,2.112463117E-3
2.944237168E1,-4.902184010E-4
2.945925068E1,2.093032002E-3
2.947614982E1,1.895613968E-3
2.949300884E1,-3.202512860E-3
2.950990585E1,-9.880587459E-4
2.952678724E1,1.149713993E-3
2.954366691E1,3.052204847E-4
2.956052813E1,2.322971821E-3
2.957741334E1,6.700627506E-3
2.959426903E1,1.480378211E-3
2.961117820E1,-4.595518112E-4
2.962805753E1,5.160793662E-3
2.964491769E1,3.051124513E-3
2.966183182E1,-4.211947322E-3
2.967870675E1,-1.131340861E-3
2.969558861E1,-7.005184889E-4
2.971246908E1,2.266831696E-3
2.972934970E1,3.879070282E-3
2.974622948E1,5.866073072E-3
2.976309456E1,4.488565028E-3
2.977998996E1,3.188431263E-3
2.979687019E1,3.973394632E-5
2.981374905E1,2.907142043E-4
2.983063059E1,1.476570964E-3
2.984751121E1,1.070022583E-3
2.986436882E1,2.847447991E-3
2.988126148E1,1.630261540E-4
2.989813796E1,9.255930781E-4
2.991501817E1,-1.304343343E-3
2.993189527E1,-3.478489816E-3
2.994878196E1,-8.589848876E-4
2.996567608E1,2.458736300E-3
2.998255301E1,1.831918955E-3
2.999943089E1,-1.178510487E-3
3.001629735E1,-2.789787948E-3
3.003317668E1,3.328576684E-3
3.005005708E1,3.136813641E-3
3.006694018E1,4.211559892E-3
3.008382732E1,3.214582801E-3
3.010069802E1,1.745298505E-4
3.011758391E1,3.793343902E-3
3.013446136E1,2.051219344E-4
3.015135458E1,-2.562105656E-4
3.016823561E1,-2.658665180E-4
3.018509910E1,2.619937062E-3
3.020198369E1,4.256851971E-3
3.021886339E1,-7.387846708E-4
3.023574863E1,4.311308265E-3
3.025264447E1,-8.072331548E-4
3.026950967E1,5.402028561E-3
3.028638342E1,5.125477910E-4
3.030326071E1,1.571632922E-3
3.032014726E1,-2.344861627E-3
3.033704673E1,5.154997110E-3
3.035390092E1,6.289832294E-3
3.037078478E1,6.407909095E-3
3.038766377E1,-5.881860852E-4
3.040454524E1,3.511920571E-3
3.042142549E1,-9.990185499E-4
3.043830571E1,1.193657517E-3
3.045520149E1,-1.381352544E-3
3.047207740E1,-6.219372153E-4
3.048894622E1,1.224301755E-3
3.050583646E1,-3.751590848E-4
3.052271053E1,-2.925373614E-3
3.053959549E1,-3.396302462E-3
3.055646749E1,5.997791886E-4
3.057334730E1,4.157200456E-3
3.059022812E1,2.840846777E-3
3.060709675E1,4.470899701E-3
3.062398823E1,4.700660706E-3
3.064088071E1,-1.710653305E-5
3.065776574E1,9.213238955E-4
3.067462959E1,3.401786089E-3
3.069151926E1,4.320457578E-3
3.070840502E1,6.795682013E-3
3.072526716E1,-8.949488401E-4
3.074215964E1,-9.666308761E-4
3.075904406E1,-9.571686387E-4
3.077592653E1,1.923605800E-3
3.079280631E1,1.288779080E-3
3.080968499E1,1.091860235E-3
3.082656100E1,2.214692533E-3
3.084342996E1,-5.748495460E-4
3.086030706E1,-3.296583891E-3
3.087719763E1,-1.419015229E-3
3.089407182E1,6.612390280E-4
3.091095010E1,3.901407123E-3
3.092783276E1,-2.626381814E-3
3.094473012E1,3.330610693E-3
3.096160427E1,1.273244619E-3
3.097848756E1,-3.027029335E-3
3.099534174E1,1.418881118E-3
3.101224754E1,-9.046047926E-4
3.102910948E1,1.670733094E-3
3.104599434E1,-8.208900690E-4
3.106285568E1,5.249381065E-4
3.107975472E1,-5.103960633E-3
3.109663502E1,3.937780857E-3
3.111351527E1,1.237392426E-3
3.113041246E1,-2.043895423E-3
3.114728915E1,-8.218288422E-4
3.116416810E1,3.368541598E-3
3.118104645E1,-7.020682096E-4
3.119793352E1,-4.286557436E-3
3.121481060E1,9.671300650E-4
3.123169130E1,-2.284720540E-3
3.124855056E1,-2.725243568E-3
3.126543503E1,8.238166571E-3
3.128233362E1,4.046425223E-3
3.129921888E1,-3.687292337E-5
3.131608522E1,-6.958767772E-4
3.133297155E1,2.667203546E-3
3.134983455E1,1.989603043E-3
3.136671890E1,-1.019038260E-3
3.138359903E1,3.172457218E-4
3.140047938E1,4.530511796E-3
3.141735957E1,-3.579854965E-3
3.143424332E1,-1.936808228E-3
3.145113399E1,1.071989536E-4
3.146801298E1,5.493946373E-3
3.148485652E1,5.164280534E-3
3.150178316E1,-7.338747382E-4
3.151863723E1,-2.906553447E-3
3.153552162E1,-3.218121827E-3
3.155238880E1,2.564758062E-3
3.156928177E1,5.703881383E-3
3.158616178E1,-3.762021661E-3
3.160302869E1,-6.297938526E-3
3.161992728E1,-2.616621554E-3
3.163681662E1,3.766380250E-3
3.165369346E1,1.750193536E-3
3.167057772E1,5.394697189E-3
3.168744567E1,-2.259001136E-3
3.170433757E1,-1.179262996E-3
3.172121369E1,-1.502789557E-3
3.173810230E1,-4.235059023E-4
3.175497389E1,7.194057107E-4
3.177186077E1,-3.029979765E-3
3.178873863E1,-1.766279340E-3
3.180560179E1,-1.035287976E-3
3.182249907E1,8.637383580E-4
3.183936208E1,-5.705729127E-4
3.185624674E1,-1.403465867E-4
3.187311174E1,-3.035575151E-3
3.189000624E1,2.331517637E-3
3.190688307E1,-2.732045949E-3
3.192377037E1,4.581615329E-3
3.194067091E1,1.637183130E-3
3.195754345E1,5.298018456E-3
3.197442335E1,4.658803344E-3
3.199130720E1,5.143806338E-4
3.200814966E1,3.945276141E-3
3.202503798E1,4.466935992E-3
3.204192833E1,-1.290857792E-3
3.205880819E1,-3.278657794E-3
3.207568929E1,1.037724316E-3
3.209256887E1,3.976680338E-3
3.210946672E1,1.525133848E-3
3.212634169E1,1.130916178E-3
3.214320738E1,1.003317535E-3
3.216010395E1,3.295220435E-3
3.217698770E1,-4.502408206E-3
3.219386069E1,-2.689644694E-3
3.221074432E1,-5.786716938E-4
3.222762074E1,8.241683245E-4
3.224450703E1,-7.218867540E-5
3.226138493E1,-1.764148474E-4
3.227826569E1,-8.676946163E-4
3.229514551E1,2.530239522E-3
3.231200978E1,-1.624092460E-3
3.232888941E1,-2.269044518E-3
3.234577260E1,-6.439983845E-4
3.236265283E1,-2.236396074E-3
3.237953288E1,-8.539557457E-4
3.239641016E1,-1.255452633E-3
3.241329660E1,-5.357891321E-3
3.243019100E1,-2.490185201E-3
3.244706287E1,2.025224268E-3
3.246395056E1,2.161107957E-3
3.248082447E1,-1.955926418E-4
3.249769686E1,-4.795789719E-4
3.251457472E1,-4.566408694E-3
3.253145177E1,-4.730388522E-3
3.254833867E1,-2.339057624E-3
3.256520247E1,-2.702564001E-3
3.258209569E1,-7.915422320E-3
3.259898622E1,-5.756393075E-4
3.261587692E1,6.424970925E-3
3.263274843E1,-2.512380481E-3
3.264963036E1,2.047926188E-3
3.266651088E1,9.989589453E-4
3.268337412E1,-1.039259136E-3
3.270027184E1,2.197355032E-3
3.271715220E1,8.629411459E-4
3.273403162E1,-3.472000360E-3
3.275092210E1,-9.675323963E-5
3.276779130E1,1.023970544E-3
3.278467217E1,1.641578972E-3
3.280154870E1,3.578297794E-3
3.281841272E1,-5.971550941E-3
3.283529912E1,5.315981805E-3
3.285217632E1,-2.846129239E-3
3.286906304E1,-1.780189574E-3
3.288593390E1,-2.778425813E-3
3.290282014E1,-1.212783158E-3
3.291971330E1,-3.904186189E-3
3.293659877E1,2.687595785E-3
3.295347294E1,3.698714077E-3
3.297033813E1,-3.057964146E-3
3.298721829E1,2.822741866E-3
3.300410118E1,-4.343494773E-3
3.302097909E1,-3.808580339E-3
3.303786534E1,-4.110671580E-3
3.305474271E1,-4.136197269E-3
3.307162237E1,-5.897633731E-3
3.308851978E1,1.429878175E-3
3.310537635E1,-1.545093954E-3
3.312229554E1,2.504289150E-4
3.313914712E1,-1.674108207E-3
3.315602229E1,-3.684185445E-3
3.317291846E1,4.130996764E-3
3.318980271E1,-4.530251026E-4
3.320664098E1,-4.716590047E-4
3.322356259E1,-3.408335149E-3
3.324043851E1,3.112837672E-3
3.325731887E1,4.072934389E-3
3.327418262E1,6.504431367E-3
3.329107923E1,3.519140184E-3
3.330795643E1,2.428963780E-3
3.332482262E1,-2.950593829E-3
3.334170954E1,2.718865871E-4
3.335858637E1,7.409527898E-4
3.337546661E1,4.894040525E-3
3.339234710E1,-2.628095448E-3
3.340922164E1,-2.694077790E-3
3.342611705E1,-9.251981974E-4
3.344299113E1,4.167780280E-4
3.345988007E1,-2.301685512E-3
3.347674505E1,1.996830106E-4
3.349362815E1,-2.256162465E-3
3.351050853E1,-2.044104040E-3
3.352738882E1,2.006217837E-4
3.354426881E1,-7.628612220E-3
3.356114930E1,-3.576837480E-3
3.357804631E1,1.717023551E-3
3.359492139E1,-3.298148513E-3
3.361180359E1,-2.299405634E-3
3.362868440E1,1.543983817E-4
3.364556081E1,-5.450695753E-4
3.366244235E1,-2.473115921E-3
3.367932729E1,-9.536072612E-4
3.369620463E1,-6.539218128E-3
3.371308476E1,-3.344185650E-3
3.372996573E1,8.505582809E-5
3.374684545E1,-2.387255430E-3
3.376372462E1,-3.897905350E-3
3.378060470E1,-2.357564867E-3
3.379748698E1,-2.796687186E-3
3.381434901E1,1.864708960E-3
3.383122964E1,-2.067759633E-3
3.384811673E1,-2.647608519E-3
3.386499725E1,2.086833119E-4
3.388187346E1,4.655607045E-3
3.389875389E1,-1.677930355E-3
3.391564528E1,2.650618553E-4
3.393253212E1,1.721933484E-3
3.394940818E1,1.958765090E-3
3.396627092E1,3.792956471E-3
3.398313458E1,-2.890802920E-3
3.400003497E1,-3.827586770E-3
3.401691534E1,9.972602129E-5
3.403379515E1,2.437941730E-3
3.405067647E1,-3.024607897E-3
3.406756861E1,-2.692393959E-3
3.408446878E1,-3.754660487E-3
3.410132315E1,-2.895414829E-3
3.411821570E1,-3.807172179E-3
3.413508998E1,3.007292747E-3
3.415197161E1,-2.945132554E-3
3.416883229E1,-7.750988007E-4
3.418573362E1,2.492859960E-3
3.420260753E1,-1.700259745E-3
3.421949580E1,1.743100584E-3
3.423635547E1,-4.643097520E-3
3.425325242E1,1.932315528E-3
3.427012681E1,-2.933338284E-3
3.428701803E1,-4.721209407E-3
3.430386015E1,1.617968082E-4
3.432075362E1,-4.859834909E-3
3.433762976E1,-1.498080790E-3
3.435451950E1,8.514821529E-4
3.437140043E1,-2.791039646E-3
3.438828020E1,-1.105152071E-3
3.440515701E1,-2.124831080E-4
3.442205250E1,1.771003008E-5
3.443893195E1,1.365400851E-3
3.445580466E1,1.527361572E-3
3.447266988E1,-1.338109374E-3
3.448956161E1,2.897441387E-3
3.450644211E1,-1.097410917E-3
3.452332194E1,2.307824790E-3
3.454019157E1,-2.487383783E-3
3.455709976E1,8.358955383E-4
3.457397663E1,-1.606412232E-3
3.459085663E1,-7.667094469E-4
3.460772002E1,-4.681423306E-3
3.462461444E1,2.321623266E-3
3.464150048E1,2.695746720E-3
3.465837792E1,1.538395882E-3
3.467525751E1,1.665800810E-4
3.469213885E1,-6.872713566E-4
3.470901706E1,9.590089321E-4
3.472589861E1,-4.546985030E-3
3.474278275E1,4.236102104E-4
3.475965320E1,2.327032387E-3
3.477653939E1,-1.377485693E-3
3.479340224E1,-3.012597561E-3
3.481027335E1,7.586926222E-4
3.482716477E1,1.683384180E-4
3.484404631E1,1.183196902E-3
3.486092332E1,2.716705203E-4
3.487779698E1,-2.670757473E-3
3.489470420E1,-2.201721072E-4
3.491158136E1,-1.639895141E-3
3.492845945E1,1.146487892E-3
3.494531165E1,3.356814384E-3
3.496220791E1,-2.187982202E-3
3.497908804E1,1.052208245E-3
3.499596797E1,4.742220044E-4
3.501285049E1,1.386582851E-3
3.502972639E1,3.343313932E-3
3.504662724E1,-3.970906138E-3
3.506350137E1,6.613515317E-3
3.508038358E1,5.243018270E-3
3.509726042E1,4.995942116E-3
3.511414447E1,-8.628368378E-4
3.513102444E1,-1.731686294E-3
3.514790290E1,1.132413745E-3
3.516478029E1,1.527637243E-3
3.518167455E1,3.919452429E-4
3.519854997E1,1.690611243E-4
3.521542514E1,4.217289388E-3
3.523230519E1,7.869601250E-4
3.524918332E1,2.808347344E-4
3.526606606E1,8.423626423E-5
3.528292803E1,-1.793555915E-3
3.529981246E1,3.788061440E-3
3.531669222E1,-5.993172526E-4
3.533357306E1,6.114371121E-3
3.535045319E1,1.856595278E-3
3.536732284E1,2.053976059E-4
3.538421394E1,-1.828648150E-3
3.540110611E1,-2.118349075E-3
3.541799188E1,8.225291967E-4
3.543483813E1,2.416297793E-3
3.545173455E1,1.435019076E-3
3.546861128E1,-5.040615797E-4
3.548549837E1,2.107940614E-3
3.550235812E1,3.136619925E-3
3.551925537E1,-2.411134541E-3
3.553613366E1,-3.129541874E-4
3.555303167E1,-1.766569912E-3
3.556989009E1,9.480789304E-4
3.558677388E1,1.418918371E-3
3.560366601E1,4.087090492E-4
3.562055441E1,2.621933818E-4
3.563742842E1,3.044083714E-4
3.565431125E1,-1.517809927E-3
3.567119100E1,-5.869381130E-3
3.568805684E1,4.589416087E-3
3.570493256E1,9.450465441E-4
3.572182752E1,3.831900656E-3
3.573870072E1,8.847787976E-4
3.575557531E1,4.540830851E-4
3.577247295E1,4.012137651E-4
3.578933548E1,-5.428746343E-3
3.580621914E1,6.337016821E-4
3.582308607E1,4.534721375E-3
3.583997963E1,-1.896850765E-3
3.585685973E1,1.158364117E-3
3.587373976E1,-1.278147101E-3
3.589062412E1,1.582205296E-4
3.590749381E1,4.487194121E-3
3.592437696E1,1.183800399E-3
3.594126091E1,2.943538129E-3
3.595813964E1,6.044946611E-3
3.597502111E1,7.617771626E-4
3.599190151E1,-1.201249659E-3
3.600878171E1,1.402482390E-3
3.602566227E1,5.316734314E-4
3.604255595E1,-2.488516271E-3
3.605943615E1,-1.796625555E-3
3.607631372E1,1.235768199E-3
3.609319906E1,2.833053470E-3
3.611007682E1,1.096352935E-4
3.612695658E1,-2.555161715E-3
3.614383693E1,1.006759703E-3
3.616071471E1,-2.519592643E-3
3.617760078E1,3.939822316E-3
3.619447781E1,-3.887087107E-3
3.621135591E1,8.004829288E-4
3.622823886E1,-2.589285374E-3
3.624510178E1,-5.000233650E-3
3.626199882E1,-3.592833877E-3
3.627886000E1,1.689910889E-3
3.629574577E1,-1.481957734E-3
3.631262717E1,2.055063844E-3
3.632950277E1,-2.637900412E-3
3.634638760E1,1.922160387E-3
3.636325334E1,1.381099224E-3
3.638016373E1,1.316852868E-3
3.639703367E1,-4.615060985E-3
3.641391062E1,-3.746420145E-3
3.643078705E1,4.593133926E-4
3.644766726E1,2.882160246E-3
3.646454420E1,1.517057419E-3
3.648143379E1,-1.005977392E-3
3.649830540E1,1.983761787E-3
3.651520557E1,1.316972077E-3
3.653208311E1,-2.830490470E-3
3.654895981E1,-3.441505134E-3
3.656584282E1,3.449760377E-3
3.658272010E1,-1.343183219E-3
3.659957481E1,-8.702278137E-4
3.661648753E1,2.767302096E-3
3.663336824E1,-2.461001277E-4
3.665021503E1,-1.921437681E-3
3.666710368E1,-3.282800317E-3
3.668400427E1,-3.472141922E-3
3.670088447E1,-1.211076975E-3
3.671777248E1,2.652712166E-3
3.673466692E1,5.420736969E-3
3.675152494E1,5.949355662E-3
3.676838573E1,7.233545184E-4
3.678526110E1,-1.725420356E-3
3.680213904E1,-2.199754119E-3
3.681902889E1,6.219819188E-4
3.683591553E1,2.196364105E-3
3.685279480E1,-5.808994174E-4
3.686967327E1,-3.791972995E-4
3.688656652E1,3.667555749E-3
3.690342972E1,2.347528934E-4
3.692031198E1,3.723695874E-3
3.693719331E1,1.340918243E-3
3.695407373E1,9.343922138E-4
3.697095397E1,-3.113985062E-3
3.698783432E1,-4.364773631E-3
3.700473171E1,-2.804532647E-3
3.702160783E1,3.698840737E-4
3.703848660E1,7.774181664E-3
3.705536936E1,1.922756433E-3
3.707224902E1,3.362409770E-3
3.708912946E1,4.218667746E-3
3.710602144E1,1.479953527E-3
3.712287715E1,1.213990152E-3
3.713976980E1,2.888672054E-3
3.715665007E1,-2.632148564E-3
3.717350682E1,-6.476648152E-3
3.719041053E1,-1.237310469E-3
3.720728998E1,1.789428294E-3
3.722415597E1,-1.793831587E-3
3.724101768E1,-6.418079138E-4
3.725792090E1,2.473011613E-3
3.727479842E1,1.162640750E-3
3.729167769E1,-2.047285438E-3
3.730855940E1,-7.719025016E-4
3.732543857E1,5.784705281E-4
3.734231820E1,-3.410130739E-4
3.735920489E1,-2.298094332E-3
3.737608971E1,-1.975759864E-3
3.739295608E1,3.228440881E-3
3.740984014E1,1.105487347E-3
3.742671987E1,4.853583872E-3
3.744360037E1,3.158673644E-3
3.746048347E1,-7.002726197E-4
3.747734492E1,-2.390168607E-3
3.749425827E1,-3.756321967E-3
3.751113467E1,-2.852357924E-3
3.752801515E1,-3.869906068E-3
3.754486107E1,2.876967192E-3
3.756177320E1,-1.284331083E-4
3.757865500E1,-2.195239067E-3
3.759553674E1,-6.609156728E-3
3.761241749E1,-5.504310131E-3
3.762929481E1,1.666374505E-3
3.764617624E1,9.809657931E-4
3.766305615E1,7.986947894E-4
3.767993121E1,4.852578044E-3
3.769682136E1,2.356097102E-4
3.771369741E1,-3.352671862E-3
3.773056106E1,-9.519457817E-4
3.774745531E1,4.615731537E-3
3.776432117E1,2.780184150E-4
3.778120423E1,1.959316432E-3
3.779808463E1,4.007421434E-3
3.781496476E1,2.492010593E-3
3.783184489E1,3.468051553E-3
3.784872528E1,-2.751767635E-3
3.786562259E1,-2.569988370E-3
3.788248086E1,-3.696322441E-3
3.789936581E1,2.679601312E-4
3.791624645E1,-2.072811127E-3
3.793312344E1,4.568591714E-3
3.795000900E1,-7.358640432E-4
3.796687362E1,-2.209521830E-3
3.798378088E1,-2.447448671E-3
3.800065513E1,4.463754594E-3
3.801754850E1,4.342935979E-3
3.803440844E1,1.429691911E-3
3.805130171E1,9.594112635E-4
3.806817568E1,9.626597166E-4
3.808506899E1,-1.121759415E-4
3.810192516E1,2.701841295E-3
3.811882402E1,2.438493073E-3
3.813570010E1,4.149548709E-3
3.815258229E1,-1.408956945E-3
3.816947706E1,-2.277337015E-3
3.818636491E1,-2.359040082E-3
3.820320495E1,4.911124706E-4
3.822010212E1,-3.175087273E-3
3.823697977E1,-7.096901536E-4
3.825385066E1,-3.179237247E-4
3.827072032E1,-3.426223993E-4
3.828761081E1,2.553589642E-3
3.830449088E1,-2.074696124E-3
3.832136979E1,-4.970505834E-4
3.833825136E1,2.675779164E-3
3.835512255E1,2.032674849E-3
3.837200878E1,7.184803486E-3
3.838889086E1,9.062759578E-3
3.840577219E1,-1.647412777E-3
3.842265253E1,8.776709437E-4
3.843953260E1,5.886703730E-3
3.845641302E1,-2.091161907E-3
3.847331033E1,7.273256779E-4
3.849016627E1,-1.841306686E-3
3.850707157E1,7.254406810E-4
3.852394555E1,-5.736947060E-6
3.854082301E1,9.860098362E-4
3.855770924E1,2.941116691E-3
3.857458779E1,2.349168062E-4
3.859146884E1,-7.901266217E-4
3.860834856E1,-3.195054829E-3
3.862521280E1,3.667697310E-4
3.864210684E1,3.961995244E-3
3.865899380E1,4.498451948E-3
3.867586311E1,4.845336080E-4
3.869274967E1,3.256388009E-3
3.870962733E1,-3.579035401E-4
3.872651085E1,-4.980690777E-3
3.874337314E1,-3.810383379E-3
3.876025649E1,-3.703653812E-3
3.877713867E1,3.641396761E-4
3.879401705E1,-8.458644152E-5
3.881089712E1,2.026498318E-3
3.882777759E1,-1.679688692E-3
3.884467496E1,6.529614329E-4
3.886153478E1,-7.551684976E-4
3.887841806E1,3.749921918E-3
3.889529804E1,2.657189965E-3
3.891217884E1,4.185572267E-3
3.892905621E1,2.377703786E-4
3.894593861E1,-2.151146531E-3
3.896283792E1,1.031309366E-3
3.897970889E1,-3.167606890E-3
3.899659763E1,-9.136423469E-4
3.901346947E1,-4.982128739E-4
3.903035569E1,3.572694957E-3
3.904723258E1,-2.764619887E-3
3.906411392E1,-4.348173738E-3
3.908099048E1,1.851394773E-4
3.909786210E1,-3.174617887E-3
3.911475492E1,-1.978836954E-3
3.913165140E1,-6.799995899E-4
3.914851808E1,-2.292275429E-3
3.916537411E1,-1.374222338E-3
3.918227577E1,-5.200803280E-4
3.919915185E1,-4.433915019E-3
3.921605021E1,-3.865323961E-3
3.923291036E1,3.161780536E-3
3.924978581E1,4.186704755E-3
3.926666294E1,-4.445739090E-3
3.928353732E1,-1.018807292E-3
3.930042336E1,6.000027061E-4
3.931730032E1,4.915729165E-3
3.933419048E1,-2.580262721E-3
3.935104748E1,-2.599813044E-3
3.936794419E1,-3.757700324E-3
3.938480811E1,-2.817489207E-3
3.940170777E1,2.186149359E-4
3.941858482E1,2.430729568E-3
3.943546490E1,2.781204879E-3
3.945236440E1,1.011237502E-3
3.946923451E1,-4.472188652E-3
3.948613396E1,-1.165524125E-3
3.950298250E1,4.770532250E-4
3.951987735E1,6.387308240E-4
3.953676252E1,3.507599235E-3
3.955361509E1,1.095272601E-3
3.957051326E1,-2.181507647E-3
3.958737624E1,2.093099058E-3
3.960427907E1,-2.007998526E-3
3.962115656E1,-7.177293301E-4
3.963804542E1,1.696184278E-3
3.965490816E1,-1.922562718E-3
3.967179977E1,-4.726029932E-3
3.968868220E1,-3.317743540E-5
3.970554910E1,6.527155638E-4
3.972242926E1,-4.086568952E-4
3.973930552E1,-5.802512169E-5
3.975618905E1,-2.309218049E-3
3.977306910E1,2.953335643E-4
3.978994943E1,-4.307925701E-4
3.980682975E1,-2.306714654E-3
3.982370976E1,-3.653749824E-3
3.984059005E1,-2.707831562E-3
3.985746664E1,-8.124411106E-4
3.987435277E1,4.683628678E-3
3.989123125E1,3.833100200E-4
3.990811090E1,-8.569285274E-4
3.992499694E1,6.521865726E-4
3.994187113E1,-3.244690597E-3
3.995876182E1,-4.828602076E-3
3.997564898E1,2.943202853E-3
3.999252368E1,3.797560930E-5
4.000940609E1,7.119327784E-4
4.002628614E1,2.615854144E-3
4.004316180E1,-1.779109240E-3
4.006004700E1,-6.425082684E-4
4.007692673E1,1.814484596E-3
4.009380698E1,-4.123568535E-3
4.011068724E1,5.973376334E-3
4.012756767E1,1.621685922E-3
4.014442883E1,-5.983076990E-3
4.016133809E1,-1.355558634E-4
4.017819967E1,-3.389142454E-3
4.019508887E1,4.258871078E-3
4.021196192E1,2.335160971E-4
4.022883796E1,-3.327831626E-3
4.024571502E1,-9.183436632E-4
4.026259514E1,-4.871264100E-4
4.027947197E1,-4.138872027E-4
4.029635912E1,-3.353737295E-3
4.031323582E1,2.332851291E-4
4.033011630E1,-2.070002258E-3
4.034699895E1,-5.371548235E-3
4.036387337E1,1.131735742E-3
4.038075419E1,-6.028234959E-3
4.039763943E1,-3.023058176E-3
4.041451690E1,-8.167102933E-4
4.043141456E1,-2.241939306E-3
4.044829170E1,-2.386420965E-3
4.046515657E1,-2.345308661E-3
4.048204591E1,-2.377092838E-3
4.049892675E1,-1.163668931E-3
4.051581530E1,-6.145127118E-3
4.053268392E1,-2.763018012E-3
4.054958106E1,-5.017742515E-4
4.056645073E1,3.918595612E-3
4.058331734E1,1.679770648E-3
4.060021219E1,1.306973398E-3
4.061708637E1,-4.568099976E-4
4.063397259E1,-2.979077399E-3
4.065084881E1,-3.157481551E-4
4.066773450E1,1.225903630E-3
4.068461768E1,-4.501931369E-3
4.070149466E1,4.567995667E-3
4.071834421E1,-1.070514321E-3
4.073524092E1,3.941230476E-3
4.075212124E1,6.074607372E-4
4.076900142E1,-1.753732562E-3
4.078586864E1,-6.223842502E-3
4.080276166E1,6.788223982E-5
4.081963776E1,9.942948818E-4
4.083652548E1,7.484853268E-5
4.085341371E1,1.082926989E-3
4.087027599E1,6.785988808E-5
4.088715841E1,-1.840144396E-3
4.090404298E1,-2.104803920E-3
4.092091980E1,3.661960363E-3
4.093782146E1,2.283729613E-3
4.095468097E1,4.306867719E-3
4.097157760E1,1.662738621E-3
4.098845777E1,1.237243414E-3
4.100532128E1,1.197539270E-3
4.102220420E1,1.956753433E-3
4.103909427E1,4.290297627E-3
4.105598267E1,1.693762839E-3
4.107285885E1,4.241585732E-3
4.108970377E1,-1.113489270E-4
4.110661947E1,1.092195511E-3
4.112349963E1,-2.818584442E-3
4.114035007E1,1.273483038E-3
4.115725924E1,8.285790682E-5
4.117414034E1,-2.499543130E-3
4.119102009E1,-4.340186715E-4
4.120789774E1,-6.034970284E-3
4.122476680E1,-9.988695383E-4
4.124164698E1,-3.185302019E-3
4.125852712E1,3.487817943E-3
4.127540743E1,1.590460539E-3
4.129228759E1,2.404153347E-3
4.130916824E1,-9.549856186E-4
4.132604782E1,7.414370775E-4
4.134291536E1,-8.009821177E-4
4.135980885E1,7.778331637E-4
4.137668861E1,-1.336015761E-3
4.139356869E1,6.017312407E-4
4.141046664E1,3.088451922E-3
4.142734871E1,-1.743912697E-3
4.144422336E1,6.306961179E-3
4.146109910E1,-1.271747053E-3
4.147798637E1,2.414010465E-3
4.149486394E1,-6.445944309E-4
4.151175013E1,1.845374703E-3
4.152861809E1,1.152478158E-3
4.154548392E1,1.007281244E-3
4.156238846E1,1.111760736E-3
4.157926470E1,-2.870783210E-3
4.159613973E1,-5.372762680E-4
4.161301184E1,3.936991096E-3
4.162990590E1,4.666462541E-3
4.164678522E1,3.031641245E-5
4.166366165E1,-9.878262877E-3
4.168055103E1,1.417972147E-3
4.169742645E1,-4.671663046E-4
4.171428890E1,-3.042310476E-3
4.173117320E1,-5.304068327E-4
4.174805300E1,-1.905217767E-3
4.176494338E1,-5.099400878E-3
4.178181373E1,2.025514841E-4
4.179868346E1,-1.980803907E-3
4.181557106E1,-2.170160413E-3
4.183245089E1,-5.592666566E-3
4.184933742E1,3.260642290E-3
4.186620199E1,-1.239426434E-3
4.188308040E1,2.702713013E-3
4.189999187E1,-6.742849946E-4
4.191686916E1,2.183020115E-3
4.193374899E1,2.161040902E-4
4.195065486E1,1.096442342E-3
4.196750730E1,-3.887914121E-3
4.198438632E1,1.599110663E-3
4.200126989E1,3.105916083E-3
4.201813740E1,-1.405157149E-3
4.203503000E1,-3.244265914E-3
4.205190684E1,-2.355419099E-3
4.206879524E1,-4.689842463E-4
4.208567097E1,-2.102851868E-4
4.210254941E1,-7.956400514E-4
4.211944855E1,3.832682967E-3
4.213629973E1,4.885047674E-4
4.215318201E1,2.217262983E-3
4.217007244E1,-1.553766429E-3
4.218693416E1,-3.237955272E-3
4.220381508E1,5.823299289E-4
4.222068310E1,1.173980534E-3
4.223758183E1,2.410791814E-3
4.225445893E1,2.557545900E-3
4.227133950E1,-4.419915378E-3
4.228820724E1,-3.607623279E-3
4.230508671E1,-3.569155931E-3
4.232197998E1,-6.593763828E-4
4.233884746E1,8.893087506E-4
4.235573997E1,-4.090972245E-3
4.237262128E1,-7.586777210E-4
4.238951790E1,-8.851140738E-4
4.240639507E1,1.929633319E-3
4.242325856E1,5.247682333E-3
4.244015506E1,1.563094556E-3
4.245703542E1,-4.790656269E-3
4.247391530E1,-2.907574177E-3
4.249079626E1,2.296268940E-4
4.250768138E1,-2.131894231E-3
4.252454843E1,3.308214247E-3
4.254144404E1,1.177817583E-3
4.255831695E1,6.762601435E-3
4.257519277E1,-1.150660217E-3
4.259208096E1,-3.460839391E-3
4.260895045E1,2.655759454E-4
4.262583774E1,8.943602443E-4
4.264271761E1,-1.882836223E-4
4.265959771E1,-4.424057901E-3
4.267647764E1,1.937083900E-3
4.269332857E1,-6.556734443E-4
4.271022479E1,7.524341345E-4
4.272710466E1,9.296983480E-4
4.274396767E1,3.894016147E-3
4.276086214E1,2.567261457E-3
4.277774861E1,-2.758041024E-3
4.279462209E1,5.034133792E-4
4.281150585E1,-1.905836165E-3
4.282838924E1,-2.250336111E-3
4.284525431E1,6.860867143E-4
4.286214619E1,2.867691219E-3
4.287903951E1,-3.316551447E-3
4.289592464E1,-2.486974001E-3
4.291280093E1,5.344524980E-4
4.292967849E1,1.064300537E-3
4.294655472E1,-2.951033413E-3
4.296346447E1,5.743503571E-4
4.298032158E1,-1.752436161E-3
4.299720165E1,-3.225483000E-3
4.301407521E1,-5.592256784E-4
4.303096934E1,-3.099068999E-3
4.304782523E1,-5.855038762E-4
4.306471655E1,9.540095925E-4
4.308160272E1,1.200392842E-3
4.309848706E1,1.199997962E-3
4.311535630E1,-2.880714834E-3
4.313222206E1,-1.292347908E-3
4.314910685E1,-6.255649030E-3
4.316599966E1,6.332993507E-7
4.318286820E1,2.095326781E-3
4.319974228E1,2.422757447E-3
4.321663061E1,2.645179629E-4
4.323351067E1,-1.886345446E-3
4.325038958E1,3.599740565E-3
4.326727114E1,4.393868148E-3
4.328413835E1,-3.189466894E-3
4.330102815E1,-6.563797593E-3
4.331791357E1,-1.856967807E-3
4.333479193E1,-5.292594433E-4
4.335167213E1,2.065233886E-3
4.336856966E1,4.234664142E-3
4.338542873E1,4.568979144E-3
4.340233093E1,-4.123896360E-3
4.341920254E1,-7.063969970E-4
4.343607525E1,3.833018243E-3
4.345293645E1,3.871396184E-4
4.346984966E1,-2.969756722E-3
4.348672755E1,-3.410577774E-3
4.350360713E1,-3.511473536E-3
4.352048836E1,1.253724098E-3
4.353736796E1,4.202663898E-3
4.355423148E1,4.616677761E-3
4.357112614E1,2.915501595E-3
4.358800922E1,-2.433359623E-4
4.360486600E1,-5.085021257E-5
4.362179612E1,5.235143006E-3
4.363864688E1,1.335948706E-3
4.365553018E1,-1.503266394E-3
4.367240769E1,-2.275556326E-4
4.368927433E1,1.086026430E-3
4.370615628E1,-1.605771482E-3
4.372302724E1,-2.060234547E-4
4.373991665E1,-1.850962639E-3
4.375679656E1,-3.143429756E-3
4.377367725E1,7.318630815E-4
4.379055736E1,-1.631394029E-3
4.380743727E1,1.012124121E-3
4.382431730E1,-3.325924277E-3
4.384119811E1,-1.515790820E-3
4.385809520E1,-5.866676569E-3
4.387497210E1,-2.497494221E-3
4.389184988E1,8.614882827E-4
4.390874096E1,1.351535320E-3
4.392561259E1,-1.515418291E-3
4.394249281E1,-1.851022243E-4
4.395936685E1,-1.788236201E-3
4.397625727E1,-1.946933568E-3
4.399313358E1,3.931961954E-3
4.401001384E1,1.906998456E-3
4.402689427E1,-2.140849829E-4
4.404377374E1,1.175679266E-3
4.406065214E1,-8.496940136E-4
4.407753429E1,-2.964772284E-3
4.409441489E1,1.400001347E-3
4.411129488E1,2.570830286E-3
4.412817480E1,-6.404519081E-4
4.414501791E1,-1.749701798E-3
4.416193882E1,-1.295305789E-3
4.417879850E1,9.729638696E-4
4.419568213E1,-9.699761868E-4
4.421256231E1,3.952272236E-3
4.422944214E1,6.054118276E-4
4.424632264E1,7.730722427E-5
4.426318972E1,1.160532236E-3
4.428008162E1,-1.624301076E-3
4.429696294E1,-3.316849470E-4
4.431384321E1,1.034326851E-3
4.433072345E1,-1.808457077E-3
4.434762184E1,6.754323840E-4
4.436449667E1,-3.670372069E-3
4.438137365E1,-2.658575773E-3
4.439824875E1,3.426283598E-3
4.441512470E1,1.383706927E-3
4.443201836E1,-2.949610353E-3
4.444889868E1,-2.340659499E-3
4.446577784E1,3.645673394E-3
4.448264704E1,3.368064761E-3
4.449953906E1,1.564808190E-3
4.451641526E1,-4.572257400E-3
4.453330186E1,-8.098110557E-4
4.455017802E1,4.972934723E-3
4.456706046E1,-3.978431225E-3
4.458393678E1,-3.524966538E-3
4.460080059E1,-5.103349686E-4
4.461769023E1,3.968678415E-3
4.463460312E1,5.749166012E-3
4.465146491E1,-2.219207585E-3
4.466833789E1,-2.288885415E-3
4.468519823E1,4.701666534E-3
4.470207502E1,-1.373887062E-5
4.471896653E1,3.985695541E-3
4.473583283E1,2.718150616E-3
4.475272833E1,2.362728119E-4
4.476960839E1,-4.807651043E-3
4.478647808E1,-1.973144710E-3
4.480336918E1,-2.167329192E-3
4.482024904E1,7.661238313E-3
4.483715071E1,-3.694333136E-3
4.485400980E1,5.596823990E-3
4.487089935E1,-5.307048559E-5
4.488778779E1,-2.054721117E-3
4.490466388E1,-2.272233367E-3
4.492154471E1,-5.047842860E-4
4.493842473E1,-3.128148615E-3
4.495529088E1,3.369390965E-3
4.497218457E1,-1.404106617E-3
4.498908620E1,8.075982332E-4
4.500594512E1,1.110434532E-3
4.502282525E1,-1.684136689E-3
4.503970292E1,-3.274850547E-3
4.505658607E1,-5.119889975E-4
4.507346562E1,2.138599753E-3
4.509034607E1,1.326858997E-3
4.510721038E1,-2.762369812E-3
4.512410672E1,-4.439279437E-4
4.514098230E1,-2.733469009E-4
4.515787083E1,-8.932799101E-4
4.517472971E1,7.249787450E-4
4.519160994E1,1.003339887E-3
4.520849727E1,-1.902140677E-3
4.522537369E1,4.576817155E-4
4.524225405E1,-3.789588809E-4
4.525913399E1,-1.115314662E-3
4.527601422E1,-5.841284990E-3
4.529289454E1,-2.067364752E-3
4.530977431E1,2.740472555E-4
4.532667185E1,-4.786029458E-4
4.534353753E1,4.639029503E-4
4.536042777E1,-3.410048783E-3
4.537731311E1,-4.016064107E-3
4.539418928E1,-1.203767955E-3
4.541106956E1,-5.497775972E-3
4.542794120E1,-3.187954426E-3
4.544483663E1,3.022290766E-3
4.546171021E1,-1.859612763E-3
4.547859018E1,-1.923881471E-3
4.549546535E1,-8.239969611E-4
4.551235408E1,4.457473755E-3
4.552923120E1,9.510666132E-5
4.554612135E1,-1.676581800E-3
4.556297421E1,-3.751292825E-3
4.557986759E1,-7.044531405E-3
4.559675590E1,-3.489591181E-3
4.561364924E1,-6.968826056E-3
4.563052074E1,2.326689661E-3
4.564739235E1,6.930083036E-4
4.566424211E1,-2.428092062E-3
4.568113454E1,2.858743072E-3
4.569802221E1,7.714331150E-4
4.571489634E1,-1.255139709E-3
4.573176788E1,-3.914318979E-3
4.574865844E1,-4.271224141E-3
4.576553659E1,-2.943873405E-4
4.578242310E1,-2.581708133E-3
4.579928502E1,4.615202546E-3
4.581620008E1,-8.034929633E-4
4.583308518E1,-3.911219537E-3
4.584995659E1,2.625271678E-3
4.586681196E1,-2.257518470E-3
4.588371295E1,-1.331470907E-3
4.590059342E1,-5.944371223E-3
4.591747695E1,-3.674745560E-3
4.593433920E1,-1.471728086E-3
4.595123610E1,-3.813952208E-5
4.596811587E1,-9.775012732E-4
4.598502115E1,-3.954946995E-3
4.600185909E1,-3.299117088E-3
4.601877422E1,-6.081506610E-3
4.603563641E1,-3.650568426E-3
4.605251724E1,1.995623112E-3
4.606939446E1,3.454089165E-3
4.608627771E1,-2.188622952E-3
4.610314701E1,2.826809883E-3
4.612003757E1,-6.385974586E-3
4.613689897E1,-4.859000444E-3
4.615378104E1,-1.672104001E-3
4.617066437E1,-2.998851240E-3
4.618754457E1,2.770073712E-3
4.620442470E1,7.240325212E-4
4.622130498E1,-2.480715513E-3
4.623818512E1,-1.752756536E-3
4.625506503E1,4.106536508E-3
4.627194570E1,4.918180406E-3
4.628882598E1,-1.903310418E-3
4.630574339E1,-3.890454769E-3
4.632259803E1,1.598663628E-3
4.633947991E1,-1.261934638E-3
4.635636018E1,-5.799464881E-3
4.637323623E1,5.180768669E-3
4.639012224E1,-1.944616437E-3
4.640700140E1,-4.120670259E-3
4.642389338E1,1.363776624E-3
4.644075747E1,-1.397848129E-3
4.645764534E1,-2.905726433E-7
4.647452145E1,-1.986652613E-3
4.649140175E1,-4.102937877E-3
4.650828250E1,-2.115838230E-3
4.652514557E1,-4.008598626E-3
4.654204238E1,2.645276487E-3
4.655891855E1,-2.262055874E-3
4.657580646E1,-9.425729513E-5
4.659268329E1,2.044066787E-3
4.660956348E1,5.505830050E-4
4.662644121E1,-8.313208818E-4
4.664330527E1,2.673268318E-5
4.666018639E1,5.339741707E-3
4.667707311E1,-2.579547465E-3
4.669395027E1,-1.357324421E-3
4.671082908E1,-1.079268754E-3
4.672771067E1,-1.010753214E-3
4.674458509E1,1.176372170E-4
4.676147653E1,-4.908651114E-3
4.677835109E1,-5.717039108E-3
4.679524859E1,-1.778140664E-3
4.681212128E1,2.811253071E-3
4.682901016E1,-3.472641110E-3
4.684588406E1,-2.642236650E-3
4.686276596E1,-4.899583757E-3
4.687964202E1,6.345286965E-4
4.689652984E1,2.247683704E-3
4.691340696E1,1.754857600E-3
4.693028672E1,4.891380668E-4
4.694716638E1,-5.539231002E-3
4.696404323E1,-2.983771265E-3
4.698092504E1,1.514188945E-3
4.699779557E1,-2.477221191E-3
4.701466890E1,-3.041364253E-3
4.703156657E1,-1.408174634E-3
4.704844613E1,-2.731382847E-5
4.706532402E1,3.087550402E-3
4.708219163E1,-3.376118839E-3
4.709908436E1,-7.179245353E-3
4.711596870E1,-8.961558342E-4
4.713285293E1,-4.042580724E-3
4.714971178E1,1.421980560E-3
4.716659555E1,-7.666528225E-3
4.718347545E1,8.511170745E-4
4.720035557E1,1.477167010E-3
4.721723438E1,-2.492956817E-3
4.723411646E1,-1.265816391E-3
4.725099632E1,-1.145981252E-3
4.726786358E1,2.973228693E-3
4.728474413E1,4.754565656E-3
4.730163676E1,-1.972615719E-3
4.731850392E1,-7.712841034E-5
4.733539738E1,1.475960016E-4
4.735227747E1,-3.822602332E-3
4.736916101E1,-6.751216948E-3
4.738604654E1,-3.777377307E-3
4.740293137E1,-4.415132105E-3
4.741981156E1,-4.179701209E-4
4.743669228E1,1.682266593E-4
4.745356783E1,-4.889287055E-3
4.747045252E1,-3.733113408E-4
4.748733288E1,-8.505806327E-4
4.750421267E1,-2.561859787E-3
4.752107761E1,-2.847559750E-3
4.753797308E1,-2.945207059E-3
4.755485384E1,-1.073077321E-3
4.757172198E1,3.704130650E-4
4.758861397E1,-5.650147796E-4
4.760547725E1,3.690570593E-4
4.762237014E1,-1.276157796E-3
4.763924166E1,-8.840337396E-4
4.765612085E1,4.020184278E-4
4.767300122E1,3.485158086E-3
4.768988100E1,1.065269113E-3
4.770676146E1,-3.322519362E-3
4.772364135E1,1.885727048E-3
4.774052199E1,-8.663013577E-4
4.775740199E1,-6.026625633E-4
4.777430622E1,-2.413302660E-3
4.779117607E1,-2.635121346E-3
4.780804908E1,2.853646874E-4
4.782493142E1,-2.209097147E-3
4.784181661E1,-3.727346659E-3
4.785869754E1,3.005921841E-3
4.787557452E1,1.037314534E-3
4.789244052E1,7.834360003E-4
4.790930251E1,-2.193212509E-3
4.792621565E1,2.150028944E-3
4.794309277E1,-3.059677780E-3
4.795997782E1,1.982070506E-3
4.797686452E1,8.934661746E-4
4.799372011E1,7.227659225E-4
4.801061508E1,4.785344005E-3
4.802749477E1,-2.734251320E-3
4.804438265E1,-6.690487266E-3
4.806125055E1,-1.417346299E-3
4.807814816E1,-5.032867193E-5
4.809501969E1,-2.139970660E-3
4.811189949E1,-3.647409379E-3
4.812876306E1,2.800077200E-4
4.814563321E1,-2.020969987E-3
4.816251323E1,3.449805081E-3
4.817940515E1,2.574764192E-3
4.819628678E1,-3.910772502E-3
4.821316694E1,-3.658078611E-3
4.823004704E1,-3.638975322E-3
4.824692733E1,-2.505630255E-3
4.826381534E1,-6.391823292E-3
4.828070340E1,-1.142360270E-3
4.829758172E1,-2.589970827E-4
4.831446441E1,2.166941762E-3
4.833133850E1,2.899095416E-4
4.834819491E1,-1.795507967E-3
4.836508574E1,7.982477546E-4
4.838196223E1,-1.690931618E-3
4.839886616E1,2.616867423E-3
4.841572116E1,4.433847964E-3
4.843262861E1,-2.339258790E-3
4.844950266E1,-2.276547253E-3
4.846638438E1,-2.166114748E-3
4.848325183E1,1.878388226E-3
4.850012685E1,1.387439668E-3
4.851702459E1,-4.492953420E-3
4.853390085E1,-6.407499313E-4
4.855078774E1,5.057349801E-3
4.856764026E1,-2.300597727E-3
4.858455496E1,7.988438010E-4
4.860142396E1,-3.955461085E-3
4.861830287E1,-4.677876830E-3
4.863517152E1,-4.737518728E-3
4.865203868E1,-3.671593964E-3
4.866892663E1,-3.556348383E-3
4.868581176E1,-5.686059594E-4
4.870269263E1,2.780422568E-3
4.871957228E1,-1.380965114E-3
4.873646675E1,8.909776807E-4
4.875334984E1,1.270033419E-3
4.877021096E1,-2.646438777E-3
4.878710288E1,-9.896233678E-4
4.880399373E1,-1.985572278E-3
4.882086154E1,3.754504025E-3
4.883775131E1,1.675352454E-3
4.885462789E1,1.497320831E-3
4.887150777E1,-1.484185457E-3
4.888838801E1,5.721934140E-3
4.890525211E1,2.984181046E-4
4.892215874E1,1.400463283E-3
4.893902730E1,1.528926194E-3
4.895590837E1,1.582883298E-3
4.897278892E1,-1.297906041E-3
4.898966905E1,2.352118492E-3
4.900654879E1,7.096379995E-4
4.902345777E1,-2.433642745E-3
4.904030950E1,1.228876412E-3
4.905718820E1,2.021342516E-5
4.907406944E1,1.549646258E-3
4.909093424E1,2.857036889E-3
4.910783094E1,-8.555799723E-4
4.912469340E1,3.827810287E-4
4.914157232E1,3.563560545E-3
4.915846026E1,-6.516203284E-4
4.917532442E1,-1.266375184E-3
4.919221752E1,1.579299569E-3
4.920909439E1,1.974888146E-3
4.922598117E1,-2.093061805E-3
4.924287098E1,1.384258270E-3
4.925975245E1,7.113523781E-3
4.927662896E1,-1.304939389E-3
4.929351219E1,4.221275449E-4
4.931039649E1,4.746630788E-3
4.932727039E1,-4.244819283E-4
4.934415351E1,1.734159887E-3
4.936103333E1,-7.899329066E-4
4.937791334E1,1.658007503E-3
4.939479301E1,4.926010966E-3
4.941167412E1,2.468593419E-3
4.942855397E1,4.934757948E-3
4.944541723E1,-5.519315600E-4
4.946231235E1,-2.536773682E-3
4.947919039E1,-5.768507719E-3
4.949606997E1,-3.299504519E-3
4.951296324E1,-4.782073200E-3
4.952981824E1,-7.178559899E-3
4.954671502E1,-5.943849683E-4
4.956359529E1,1.562558115E-3
4.958047558E1,1.722127199E-4
4.959736136E1,1.756511629E-3
4.961422278E1,2.113565803E-3
4.963110228E1,2.852603793E-4
4.964796028E1,1.826614141E-3
4.966484724E1,-1.975558698E-3
4.968173942E1,-1.776568592E-3
4.969862620E1,-2.586409450E-3
4.971548277E1,2.136081457E-4
4.973240099E1,1.696892083E-3
4.974927579E1,1.952245831E-3
4.976615946E1,-8.077248931E-4
4.978302216E1,6.657317281E-4
4.979991833E1,6.077244878E-3
4.981679774E1,-1.251660287E-3
4.983364769E1,5.724184215E-3
4.985057352E1,5.657069385E-3
4.986743913E1,5.604088306E-3
4.988431467E1,2.694644034E-3
4.990119898E1,-6.960928440E-4
4.991807796E1,-2.414405346E-3
4.993494255E1,-3.231152892E-3
4.995181521E1,2.298355103E-4
4.996870936E1,4.771396518E-3
4.998560073E1,-3.604516387E-4
5.000247994E1,6.168857217E-4
5.001933417E1,-1.042164862E-3
5.003623992E1,-5.213186145E-3
5.005312341E1,3.955729306E-3
5.006999823E1,-1.600809395E-3
5.008686425E1,-2.365604043E-3
5.010374390E1,-1.379489899E-3
5.012062725E1,6.829053164E-4
5.013750788E1,-1.870095730E-3
5.015438763E1,6.274208426E-4
5.017126857E1,2.115190029E-3
5.018814609E1,-1.739569008E-3
5.020501864E1,5.250871181E-4
5.022190903E1,8.497834206E-4
5.023880867E1,-7.563084364E-4
5.025567692E1,-9.427741170E-4
5.027256304E1,3.742985427E-3
5.028942592E1,-2.366751432E-4
5.030632344E1,2.047583461E-3
5.032317038E1,-4.506632686E-4
5.034008382E1,2.000898123E-3
5.035696316E1,-3.431178629E-3
5.037384444E1,1.609370112E-3
5.039072005E1,-5.815699697E-4
5.040760862E1,-3.152310848E-3
5.042448044E1,-5.977600813E-5
5.044136357E1,-6.138533354E-4
5.045824584E1,9.892210364E-4
5.047512488E1,-5.680918694E-4
5.049200805E1,1.990199089E-3
5.050888543E1,8.298277855E-3
5.052576877E1,-6.908848882E-4
5.054264269E1,3.764323890E-3
5.055952178E1,3.758579493E-3
5.057640616E1,2.642475069E-3
5.059328693E1,-4.530146718E-3
5.061015147E1,-1.474052668E-3
5.062703284E1,7.337778807E-4
5.064391435E1,-7.407814264E-4
5.066078712E1,3.765411675E-3
5.067767700E1,3.804244101E-3
5.069455338E1,1.648962498E-3
5.071144695E1,1.219324768E-3
5.072833202E1,2.266436815E-3
5.074519143E1,-1.171737909E-3
5.076208804E1,-2.152808011E-3
5.077895992E1,-1.197248697E-3
5.079585639E1,3.621563315E-3
5.081272916E1,-1.570008695E-3
5.082961028E1,5.682721734E-3
5.084648522E1,-3.088697791E-3
5.086335565E1,2.576261759E-4
5.088025266E1,-5.149200559E-3
5.089712389E1,3.909692168E-3
5.091399169E1,5.392856896E-3
5.093087284E1,2.738848329E-3
5.094777091E1,1.255244017E-3
5.096464431E1,7.953599095E-3
5.098153628E1,4.918940365E-3
5.099839358E1,-4.336461425E-3
5.101529124E1,1.216545701E-3
5.103217061E1,-8.920356631E-4
5.104905169E1,2.916201949E-3
5.106591481E1,-1.642651856E-3
5.108279108E1,-2.319946885E-3
5.109967861E1,4.515357316E-3
5.111655756E1,2.593673766E-3
5.113343864E1,1.135952771E-3
5.115031845E1,4.985772073E-3
5.116719834E1,3.861337900E-4
5.118407747E1,1.924939454E-3
5.120094203E1,-7.410198450E-4
5.121784016E1,-1.177355647E-3
5.123471890E1,-2.403095365E-3
5.125161101E1,1.439467072E-3
5.126849389E1,9.049996734E-4
5.128535668E1,-3.810875118E-3
5.130224516E1,-1.639887691E-3
5.131912786E1,4.941374063E-4
5.133600172E1,6.066344678E-3
5.135289466E1,3.935262561E-3
5.136977422E1,7.111728191E-4
5.138665511E1,-3.163315356E-3
5.140353072E1,-2.692759037E-3
5.142041906E1,1.313857734E-3
5.143729376E1,1.851767302E-3
5.145417595E1,3.043532372E-3
5.147105705E1,3.189362586E-3
5.148791279E1,3.824301064E-3
5.150479486E1,5.068480968E-3
5.152169650E1,-6.227567792E-4
5.153857628E1,1.736953855E-4
5.155545651E1,-1.399464905E-3
5.157233458E1,2.424754202E-3
5.158919944E1,6.929934025E-4
5.160608320E1,-1.939311624E-4
5.162295975E1,2.554729581E-3
5.163984220E1,-1.064278185E-3
5.165672373E1,1.274161041E-3
5.167360369E1,5.116239190E-4
5.169050190E1,4.360191524E-3
5.170737813E1,-8.204057813E-4
5.172424222E1,4.090063274E-3
5.174113410E1,1.993961632E-3
5.175802020E1,1.629620790E-3
5.177489916E1,2.728007734E-3
5.179177896E1,-1.097872853E-3
5.180865896E1,1.252122223E-3
5.182555489E1,3.450892866E-3
5.184241776E1,1.849137247E-3
5.185930184E1,-1.224927604E-3
5.187617990E1,-5.778640509E-3
5.189305575E1,-2.429589629E-3
5.190993814E1,-4.761040211E-3
5.192682491E1,3.604590893E-3
5.194370037E1,-1.001715660E-3
5.196057825E1,-1.722678542E-3
5.197745819E1,-7.199496031E-5
5.199434414E1,2.569250762E-3
5.201122140E1,-1.087702811E-3
5.202810125E1,1.294456422E-3
5.204496291E1,1.565627754E-3
5.206186596E1,-2.520278096E-3
5.207872706E1,-5.916595459E-3
5.209560500E1,5.013793707E-4
5.211248830E1,3.060549498E-4
5.212936853E1,-3.803052008E-3
5.214624988E1,-3.405362368E-4
5.216313330E1,-1.634150743E-3
5.218000534E1,-5.854524672E-3
5.219690296E1,-1.219131052E-3
5.221378560E1,-2.770759165E-3
5.223064623E1,2.207852900E-3
5.224752966E1,9.380280972E-6
5.226442397E1,-2.561435103E-3
5.228129774E1,1.130230725E-3
5.229818809E1,5.227625370E-4
5.231504744E1,1.493424177E-3
5.233194438E1,5.909949541E-4
5.234882614E1,4.694759846E-4
5.236570349E1,1.556716859E-3
5.238258610E1,4.614047706E-3
5.239946253E1,1.096591353E-3
5.241633609E1,1.610465348E-3
5.243322546E1,1.621894538E-3
5.245008586E1,-7.100105286E-4
5.246698570E1,4.111886024E-3
5.248384712E1,6.592668593E-3
5.250074502E1,3.469757736E-3
5.251763046E1,-1.743018627E-3
5.253450459E1,1.069270074E-3
5.255137009E1,4.430882633E-3
5.256825309E1,-9.329840541E-4
5.258512005E1,2.264976501E-5
5.260201347E1,-4.551097751E-3
5.261889053E1,6.306394935E-4
5.263577634E1,2.487450838E-4
5.265265380E1,-4.759356380E-4
5.266953752E1,1.177914441E-3
5.268641156E1,2.705156803E-4
5.270330471E1,-4.484340549E-3
5.272018570E1,-5.286484957E-4
5.273705709E1,-1.582197845E-3
5.275394878E1,-4.647091031E-3
5.277082889E1,-2.109423280E-3
5.278769400E1,1.058056951E-3
5.280458968E1,1.579649746E-3
5.282146947E1,-1.240916550E-3
5.283834961E1,1.276083291E-3
5.285522771E1,-1.191258430E-3
5.287211005E1,-3.815218806E-3
5.288899005E1,-4.231736064E-3
5.290587029E1,-1.032277942E-4
5.292274430E1,1.661501825E-3
5.293963469E1,1.998282969E-3
5.295651086E1,-9.576976299E-4
5.297339074E1,-2.290382981E-4
5.299027141E1,-5.831196904E-4
5.300713602E1,4.701912403E-4
5.302403142E1,6.593465805E-4
5.304090566E1,-9.727403522E-4
5.305777877E1,5.732178688E-4
5.307464504E1,-8.547231555E-4
5.309153946E1,7.713362575E-4
5.310841631E1,-1.545026898E-4
5.312528616E1,2.652958035E-3
5.314217770E1,1.261197031E-3
5.315906134E1,-7.045269012E-4
5.317595301E1,3.023535013E-3
5.319282927E1,-3.358423710E-3
5.320971440E1,-4.290997982E-3
5.322659646E1,1.434333622E-3
5.324346776E1,3.503650427E-3
5.326035770E1,1.453533769E-3
5.327722786E1,6.264425814E-3
5.329411782E1,1.829460263E-3
5.331099473E1,-1.788005233E-3
5.332787458E1,-4.131793976E-3
5.334474593E1,5.387574434E-3
5.336163771E1,-2.255737782E-4
5.337851930E1,-9.839236736E-4
5.339539521E1,-3.350518644E-3
5.341227529E1,-2.643756568E-3
5.342915328E1,2.692282200E-3
5.344601521E1,-5.869492888E-4
5.346293063E1,-2.133294940E-3
5.347978224E1,-1.212388277E-3
5.349665706E1,-4.014670849E-3
5.351356197E1,-1.684486866E-3
5.353043675E1,4.607804120E-3
5.354729954E1,1.512341201E-3
5.356416327E1,-1.951813698E-3
5.358105986E1,4.535257816E-3
5.359794566E1,-3.050044179E-4
5.361481115E1,1.853995025E-3
5.363169103E1,2.155803144E-3
5.364858396E1,-1.874402165E-3
5.366546482E1,1.552164555E-3
5.368235571E1,-8.696764708E-4
5.369922148E1,-2.286911011E-3
5.371611884E1,1.570478082E-3
5.373299809E1,-6.979480386E-4
5.374986912E1,4.702255130E-3
5.376674778E1,5.539596081E-3
5.378363894E1,-1.345917583E-3
5.380052548E1,-5.323275924E-3
5.381740369E1,-5.936399102E-3
5.383427940E1,-1.292318106E-3
5.385116445E1,-1.331642270E-4
5.386802744E1,-1.117683947E-3
5.388488630E1,-4.255414009E-3
5.390180001E1,-4.090391099E-3
5.391867291E1,3.969162703E-3
5.393555060E1,2.343229949E-3
5.395244146E1,-8.635073900E-4
5.396930706E1,-1.371026039E-3
5.398620109E1,3.380067647E-3
5.400307977E1,-1.027435064E-5
5.401996164E1,-1.094549894E-3
5.403682463E1,-2.329729497E-3
5.405370800E1,-1.366764307E-3
5.407058670E1,-1.251123846E-3
5.408746837E1,5.760937929E-4
5.410434845E1,-9.644776583E-4
5.412122552E1,1.595444977E-3
5.413812300E1,1.967526972E-3
5.415500562E1,-2.005338669E-3
5.417188278E1,-1.398786902E-3
5.418876305E1,-2.477981150E-3
5.420563910E1,-1.577422023E-3
5.422252353E1,3.768876195E-4
5.423940338E1,-1.094244421E-3
5.425628337E1,2.704255283E-3
5.427315993E1,1.179158688E-3
5.429004874E1,7.897913456E-4
5.430692431E1,3.685921431E-3
5.432380256E1,-2.297721803E-3
5.434068891E1,3.243714571E-3
5.435756009E1,2.265520394E-3
5.437444489E1,-1.962110400E-3
5.439129901E1,1.380234957E-3
5.440820579E1,1.863390207E-3
5.442507033E1,7.739238441E-3
5.444196559E1,-1.658350229E-4
5.445884570E1,5.533330142E-3
5.447572474E1,4.095241427E-3
5.449260265E1,2.060890198E-3
5.450949078E1,6.391555071E-4
5.452634920E1,-2.075284719E-4
5.454321989E1,2.499386668E-3
5.456010750E1,-5.189776421E-4
5.457699782E1,1.320831478E-3
5.459387342E1,-2.488344908E-3
5.461075322E1,-1.151412725E-4
5.462763355E1,-1.523554325E-3
5.464451560E1,1.729279757E-5
5.466140920E1,-3.727078438E-4
5.467828788E1,-2.783685923E-3
5.469516884E1,9.416863322E-4
5.471204509E1,-2.633184195E-4
5.472892962E1,-4.428148270E-3
5.474580829E1,3.610782325E-3
5.476268862E1,-9.342804551E-4
5.477956470E1,1.306071877E-3
5.479644901E1,5.755499005E-4
5.481331796E1,4.234388471E-4
5.483019423E1,1.508057117E-3
5.484708928E1,-5.325019360E-3
5.486396512E1,5.474165082E-4
5.488084993E1,5.514934659E-3
5.489771708E1,-1.783162355E-3
5.491461058E1,5.321875215E-4
5.493148612E1,3.823161125E-3
5.494837457E1,-2.726316452E-3
5.496523365E1,4.899509251E-3
5.498213062E1,3.860883415E-3
5.499900461E1,-9.439438581E-4
5.501588036E1,-1.758396626E-3
5.503275750E1,2.803444862E-3
5.504963754E1,1.728773117E-3
5.506651778E1,1.579619944E-3
5.508339770E1,-1.395709813E-3
5.510027849E1,1.201562583E-3
5.511715405E1,-3.105998039E-3
5.513404263E1,-2.180486917E-4
5.515093157E1,-3.859475255E-3
5.516778509E1,-2.156674862E-3
5.518469250E1,1.045510173E-3
5.520156479E1,-2.506740391E-3
5.521845051E1,2.762086689E-3
5.523533361E1,7.677227259E-3
5.525221317E1,3.132946789E-3
5.526908945E1,-4.048526287E-3
5.528595739E1,-4.442691803E-3
5.530285379E1,6.696060300E-4
5.531973313E1,-1.544758677E-3
5.533660052E1,1.082792878E-3
5.535349249E1,-1.413181424E-3
5.537037462E1,1.055039465E-3
5.538726208E1,-2.635076642E-3
5.540411389E1,2.083443105E-3
5.542101496E1,4.901364446E-4
5.543789944E1,2.500385046E-3
5.545477538E1,-1.269176602E-3
5.547165548E1,-1.852571964E-3
5.548852293E1,2.744875848E-3
5.550538531E1,1.684769988E-3
5.552228211E1,-2.603851259E-3
5.553916083E1,1.980207860E-3
5.555604261E1,3.747791052E-4
5.557292284E1,1.299381256E-3
5.558980250E1,-1.454032958E-3
5.560668306E1,1.076526940E-3
5.562356303E1,3.466010094E-4
5.564046044E1,-4.386596382E-3
5.565734263E1,7.099732757E-4
5.567421565E1,-1.506477594E-3
5.569109794E1,-6.461888552E-5
5.570797753E1,2.556741238E-3
5.572485735E1,2.805553377E-3
5.574174127E1,-3.084540367E-5
5.575861548E1,2.535216510E-3
5.577549818E1,-2.300381660E-3
5.579235342E1,-1.957491040E-3
5.580926263E1,5.056291819E-3
5.582614332E1,-7.802322507E-4
5.584300131E1,-1.791730523E-3
5.585989692E1,-2.044104040E-3
5.587677400E1,-2.980977297E-4
5.589366522E1,5.049258471E-5
5.591053937E1,1.356936991E-3
5.592741982E1,4.270151258E-4
5.594430004E1,-1.469090581E-3
5.596117568E1,2.374023199E-3
5.597806038E1,-5.285151303E-3
5.599492742E1,-5.983933806E-4
5.601180697E1,1.278743148E-3
5.602868753E1,3.367528319E-3
5.604557729E1,-3.997758031E-4
5.606244755E1,-9.848400950E-4
5.607932776E1,9.818375111E-5
5.609619846E1,5.472980440E-3
5.611307473E1,3.928229213E-3
5.612998089E1,1.894809306E-3
5.614686924E1,1.567408442E-3
5.616374388E1,1.548558474E-3
5.618060987E1,-1.348547637E-3
5.619750289E1,-1.809105277E-3
5.621437837E1,-1.892223954E-3
5.623126657E1,8.017539978E-3
5.624812613E1,6.604388356E-3
5.626498915E1,3.435932100E-3
5.628188726E1,7.146298885E-4
5.629877670E1,-1.453332603E-3
5.631566547E1,-1.751773059E-3
5.633254350E1,-3.572553396E-5
5.634942673E1,2.573654056E-4
5.636630357E1,1.462005079E-3
5.638316248E1,-1.199610531E-3
5.640007238E1,1.286298037E-3
5.641694450E1,4.577115178E-4
5.643382380E1,2.729743719E-4
5.645068845E1,-7.916092873E-3
5.646757094E1,-3.856919706E-3
5.648444778E1,-9.984448552E-4
5.650132995E1,1.575052738E-5
5.651821440E1,2.097934484E-4
5.653507576E1,4.265286028E-3
5.655197189E1,1.985013485E-3
5.656885230E1,-2.201348543E-4
5.658573207E1,-2.830311656E-3
5.660261245E1,-2.156272531E-4
5.661949585E1,-1.534223557E-3
5.663638655E1,1.153491437E-3
5.665326639E1,3.909304738E-3
5.667013014E1,-4.951499403E-3
5.668702633E1,1.857370138E-3
5.670390780E1,1.773528755E-3
5.672078981E1,2.816751599E-3
5.673766458E1,-1.142457128E-3
5.675454703E1,-4.612348974E-3
5.677142853E1,3.598637879E-3
5.678830877E1,-2.103291452E-3
5.680516742E1,5.168348551E-3
5.682207018E1,6.280265749E-3
5.683894613E1,-1.692965627E-3
5.685583115E1,-2.910241485E-3
5.687270862E1,-1.970402896E-3
5.688958894E1,-2.924323082E-3
5.690646922E1,-2.986252308E-3
5.692333252E1,5.131222308E-3
5.694022928E1,-5.832098424E-3
5.695711041E1,-1.657664776E-3
5.697397266E1,5.278445780E-3
5.699085582E1,-1.704268157E-3
5.700773490E1,4.281014204E-3
5.702461615E1,-1.774869859E-3
5.704149776E1,1.391962171E-3
5.705837331E1,1.792013645E-3
5.707525785E1,-1.026935875E-3
5.709213714E1,3.173537552E-3
5.710901700E1,2.008639276E-3
5.712591321E1,-2.188816667E-3
5.714280104E1,3.040872514E-3
5.715967130E1,2.853870392E-4
5.717655153E1,7.458373904E-3
5.719342758E1,8.924677968E-4
5.721031588E1,1.614496112E-3
5.722719041E1,4.677355289E-3
5.724407228E1,-7.792413235E-4
5.726094812E1,2.440877259E-3
5.727783672E1,1.819029450E-3
5.729468272E1,1.847080886E-3
5.731157563E1,-1.160196960E-3
5.732846091E1,-1.469381154E-3
5.734532620E1,-2.638071775E-3
5.736221814E1,2.301082015E-3
5.737908775E1,1.250110567E-3
5.739598253E1,3.500953317E-3
5.741286979E1,8.995980024E-4
5.742975477E1,-4.161037505E-3
5.744661644E1,-1.919791102E-4
5.746350191E1,3.349818289E-3
5.748038034E1,3.253899515E-3
5.749725732E1,9.879469872E-4
5.751414357E1,-1.061469316E-3
5.753102127E1,4.317536950E-4
5.754790107E1,4.782967269E-3
5.756478126E1,5.447499454E-3
5.758166145E1,-2.721846104E-4
5.759854162E1,-2.345457673E-3
5.761543516E1,3.041997552E-4
5.763232395E1,-2.136513591E-3
5.764918862E1,1.619100571E-3
5.766607673E1,3.335140646E-3
5.768293928E1,2.477452159E-3
5.769982859E1,3.502294421E-3
5.771670991E1,2.488896251E-3
5.773359686E1,-2.871803939E-3
5.775047662E1,-1.321434975E-3
5.776735806E1,1.850120723E-3
5.778423555E1,-6.178468466E-4
5.780111263E1,1.960679889E-3
5.781800146E1,5.226582289E-5
5.783486333E1,2.116978168E-3
5.785174540E1,4.224240780E-3
5.786863790E1,-1.387819648E-4
5.788550113E1,-2.057366073E-3
5.790238236E1,-4.611834884E-4
5.791927818E1,8.825808764E-4
5.793615851E1,2.199836075E-3
5.795301000E1,2.426862717E-3
5.796990204E1,5.346283317E-3
5.798678512E1,4.077345133E-3
5.800366530E1,2.809830010E-3
5.802054724E1,2.630256116E-3
5.803742381E1,1.437880099E-3
5.805430597E1,5.876049399E-3
5.807118577E1,8.767321706E-4
5.808806602E1,1.452118158E-4
5.810494686E1,2.277500927E-3
5.812184014E1,-1.473747194E-3
5.813871613E1,-3.189243376E-3
5.815560046E1,-4.907250404E-4
5.817248479E1,2.160578966E-3
5.818936105E1,4.320517182E-3
5.820623312E1,3.972649574E-3
5.822309174E1,5.676582456E-3
5.823998503E1,1.853361726E-3
5.825688148E1,1.305975020E-3
5.827376162E1,-6.368383765E-4
5.829063910E1,3.708742559E-3
5.830752291E1,7.765665650E-4
5.832440211E1,3.868371248E-3
5.834127776E1,2.567663789E-3
5.835816408E1,5.985423923E-4
5.837503876E1,9.634196758E-4
5.839192341E1,5.032435060E-3
5.840880625E1,-1.751556993E-4
5.842568114E1,8.363351226E-4
5.844254564E1,-1.864030957E-3
5.845943787E1,6.075501442E-4
5.847630646E1,-7.795840502E-4
5.849318995E1,1.944318414E-3
5.851006959E1,5.232997239E-3
5.852694688E1,1.689285040E-3
5.854383281E1,1.753836870E-3
5.856071336E1,5.374625325E-3
5.857758819E1,8.371472359E-5
5.859447717E1,2.166159451E-3
5.861135912E1,2.304092050E-4
5.862824517E1,2.272188663E-3
5.864510397E1,-3.340318799E-4
5.866201095E1,-1.946918666E-3
5.867887890E1,1.894958317E-3
5.869576363E1,-1.514866948E-3
5.871263314E1,4.899024963E-3
5.872951091E1,2.962112427E-3
5.874640608E1,2.780228853E-3
5.876326850E1,1.561515033E-3
5.878016690E1,5.347721279E-3
5.879702567E1,5.938053131E-3
5.881393052E1,1.977987587E-3
5.883080644E1,2.474300563E-3
5.884768654E1,6.517559290E-3
5.886455001E1,-3.925204277E-3
5.888144755E1,4.647970200E-4
5.889832726E1,3.294192255E-3
5.891520712E1,8.277371526E-4
5.893206883E1,1.116350293E-3
5.894895369E1,5.274035037E-3
5.896583391E1,6.440281868E-5
5.898271409E1,-7.060095668E-4
5.899959288E1,6.860956550E-3
5.901647432E1,5.078464746E-3
5.903333441E1,3.031335771E-3
5.905023456E1,9.495094419E-4
5.906711550E1,5.295515060E-3
5.908399495E1,1.911453903E-3
5.910088807E1,1.413203776E-3
5.911777086E1,2.384714782E-3
5.913464964E1,-1.544341445E-3
5.915152921E1,8.051395416E-4
5.916839303E1,-3.625698388E-3
5.918527267E1,2.608902752E-3
5.920217021E1,2.440132201E-3
5.921904973E1,1.240156591E-3
5.923594996E1,1.029022038E-3
5.925280844E1,-3.630682826E-3
5.926969023E1,-7.534772158E-4
5.928657091E1,-1.000516117E-3
5.930343437E1,-9.627565742E-4
5.932032836E1,4.885599017E-3
5.933720963E1,2.856038511E-3
5.935408693E1,1.270934939E-3
5.937096411E1,1.118294895E-3
5.938785237E1,1.100085676E-3
5.940473164E1,1.010015607E-3
5.942159442E1,-1.840606332E-3
5.943846506E1,4.708670080E-3
5.945535826E1,-1.307800412E-4
5.947223830E1,2.020858228E-3
5.948911850E1,-1.535907388E-3
5.950599842E1,4.939876497E-3
5.952288723E1,8.098036051E-5
5.953975892E1,2.178296447E-3
5.955663910E1,-4.446186125E-3
5.957351947E1,-1.420594752E-3
5.959041377E1,-9.871348739E-4
5.960728001E1,-2.081364393E-3
5.962417385E1,-8.940696716E-8
5.964104869E1,-7.471516728E-4
5.965793677E1,-2.531483769E-4
5.967481006E1,9.797960520E-4
5.969169457E1,3.347083926E-3
5.970857874E1,5.459837615E-3
5.972544061E1,1.637592912E-3
5.974233117E1,2.121187747E-3
5.975921229E1,3.303788602E-3
5.977609908E1,2.312742174E-3
5.979297135E1,3.482401371E-4
5.980985938E1,-2.792015672E-3
5.982673148E1,-4.386708140E-3
5.984361567E1,1.280888915E-3
5.986051182E1,2.191275358E-3
5.987737583E1,2.281963825E-3
5.989424902E1,-2.820737660E-3
5.991112418E1,-3.627046943E-3
5.992800243E1,2.829879522E-4
5.994488020E1,1.433119178E-3
5.996176141E1,5.124360323E-3
5.997864030E1,5.593448877E-3
5.999552613E1,-3.066495061E-3
6.001240312E1,-2.568252385E-3
6.002928978E1,-2.471216023E-3
6.004616031E1,-2.485968173E-3
6.006302896E1,-2.409741282E-4
6.007993074E1,6.690546870E-4
6.009681813E1,-3.862857819E-3
6.011368133E1,1.262724400E-4
6.013057660E1,-2.165071666E-3
6.014745725E1,-1.405723393E-3
6.016432220E1,1.651465893E-3
6.018121511E1,-8.426979184E-4
6.019809930E1,5.887672305E-4
6.021497953E1,-1.063719392E-3
6.023185972E1,-3.650322556E-3
6.024873902E1,1.184776425E-3
6.026561790E1,7.427334785E-4
6.028249900E1,-2.318918705E-3
6.029936900E1,2.731904387E-4
6.031625961E1,4.663862288E-3
6.033313560E1,2.322360873E-3
6.035002450E1,3.029130399E-3
6.036689046E1,8.909776807E-4
6.038377984E1,-4.167661071E-3
6.040063723E1,-4.301264882E-3
6.041753120E1,8.463338017E-4
6.043440690E1,3.325693309E-3
6.045128365E1,-1.075111330E-3
6.046815747E1,7.656961679E-5
6.048503428E1,-1.566864550E-3
6.050192751E1,-1.786842942E-3
6.051880684E1,1.165665686E-3
6.053568868E1,1.667149365E-3
6.055256778E1,2.344869077E-3
6.056945148E1,1.818254590E-3
6.058632547E1,4.565916955E-3
6.060319013E1,5.002342165E-3
6.062008521E1,5.124010146E-3
6.063694750E1,3.396570683E-4
6.065386227E1,4.395775497E-3
6.067074304E1,6.191082299E-3
6.068764844E1,2.305611968E-3
6.070450310E1,-1.170702279E-3
6.072138164E1,-2.964019775E-3
6.073826277E1,1.946181059E-3
6.075514342E1,3.403998911E-3
6.077202347E1,4.760377109E-3
6.078889805E1,-1.946456730E-3
6.080578824E1,1.154839993E-3
6.082266408E1,1.528024673E-3
6.083952711E1,3.343522549E-3
6.085642471E1,-1.115426421E-3
6.087329858E1,-2.846531570E-3
6.089016178E1,-4.976324737E-3
6.090705102E1,-6.583109498E-4
6.092392858E1,1.159988344E-3
6.094080888E1,-1.470245421E-3
6.095769401E1,3.934472799E-3
6.097457118E1,7.143914700E-4
6.099145192E1,1.276724041E-3
6.100833221E1,3.121294081E-3
6.102519875E1,4.651375115E-3
6.104209262E1,3.091037273E-3
6.105896889E1,2.915494144E-3
6.107587264E1,5.213692784E-4
6.109274630E1,-3.860495985E-3
6.110962032E1,-2.329342067E-3
6.112651090E1,-3.195859492E-3
6.114337011E1,-2.170167863E-3
6.116026685E1,1.904569566E-3
6.117714704E1,-3.121569753E-4
6.119403446E1,-2.907067537E-3
6.121090734E1,-2.141751349E-3
6.122778732E1,-9.211897850E-4
6.124466261E1,6.852172315E-3
6.126154880E1,-7.672607899E-4
6.127842996E1,-3.077529371E-3
6.129530752E1,-2.362877131E-3
6.131218894E1,-4.487283528E-3
6.132906819E1,-1.814782619E-3
6.134593490E1,1.417666674E-3
6.136282693E1,-1.630894840E-3
6.137969038E1,-2.324506640E-4
6.139657633E1,3.896631300E-3
6.141345568E1,1.643672585E-3
6.143033409E1,2.510271966E-3
6.144721477E1,-2.531491220E-3
6.146409564E1,-2.127051353E-3
6.148097257E1,-2.085670829E-3
6.149785908E1,-2.142712474E-3
6.151472898E1,-3.938347101E-3
6.153161614E1,3.448098898E-3
6.154849668E1,2.798698843E-3
6.156537975E1,-6.834790111E-4
6.158228739E1,-2.912744880E-3
6.159914640E1,4.878327250E-3
6.161603620E1,-4.899427295E-3
6.163290979E1,-5.638524890E-4
6.164977472E1,-1.656569541E-3
6.166665441E1,-4.708871245E-3
6.168354851E1,2.431496978E-3
6.170043142E1,-1.160435379E-3
6.171731105E1,2.376809716E-3
6.173419156E1,3.528594971E-3
6.175105918E1,4.811428487E-3
6.176793856E1,2.060338855E-3
6.178483242E1,-2.326138318E-3
6.180171203E1,2.068966627E-3
6.181858390E1,-6.266757846E-4
6.183547243E1,4.128895700E-3
6.185235269E1,4.224389791E-3
6.186921563E1,8.015856147E-4
6.188609930E1,1.450732350E-3
6.190297902E1,-2.615079284E-4
6.191985988E1,-1.619793475E-3
6.193673935E1,2.903282642E-3
6.195361972E1,-2.773359418E-3
6.197049980E1,-4.749014974E-3
6.198738013E1,-3.228180110E-3
6.200426033E1,2.217791975E-3
6.202112727E1,-9.407028556E-4
6.203802045E1,3.200948238E-3
6.205491780E1,1.976475120E-3
6.207179195E1,2.963684499E-3
6.208867539E1,1.996859908E-3
6.210553801E1,-3.960147500E-3
6.212243523E1,9.578913450E-4
6.213931530E1,-1.186311245E-3
6.215619517E1,-2.668112516E-3
6.217307507E1,-2.853043377E-3
6.218995591E1,-1.614816487E-3
6.220683602E1,-1.413382590E-3
6.222371588E1,3.777965903E-4
6.224059578E1,1.167051494E-3
6.225747369E1,1.752525568E-4
6.227434438E1,-1.083143055E-3
6.229123644E1,4.589542747E-3
6.230811233E1,4.326194525E-3
6.232496616E1,-1.480013132E-3
6.234188092E1,-6.028860807E-4
6.235874001E1,-1.082487404E-3
6.237562308E1,-1.228138804E-3
6.239250347E1,4.625491798E-3
6.240938357E1,-2.580806613E-4
6.242626384E1,-2.161055803E-3
6.244313086E1,-1.326635480E-3
6.246002604E1,-5.164906383E-3
6.247690241E1,4.118464887E-3
6.249378418E1,2.678260207E-3
6.251066432E1,-1.577362418E-3
6.252754619E1,7.693797350E-3
6.254442517E1,4.403479397E-3
6.256131444E1,-4.229500890E-3
6.257820042E1,3.937259316E-4
6.259507906E1,2.193041146E-3
6.261195916E1,-1.507110894E-3
6.262883244E1,-3.228589892E-3
6.264572454E1,1.686781645E-3
6.266258904E1,7.257387042E-4
6.267947938E1,-5.873367190E-4
6.269635829E1,-1.885078847E-3
6.271323960E1,-2.001911402E-3
6.273010314E1,3.138661385E-3
6.274700022E1,5.622178316E-3
6.276387634E1,4.193283617E-3
6.278075340E1,-1.518428326E-4
6.279764285E1,9.153261781E-4
6.281452086E1,1.114279032E-3
6.283140141E1,-6.144419312E-4
6.284826342E1,3.353208303E-4
6.286513412E1,5.245305598E-3
6.288202741E1,-2.159163356E-3
6.289890114E1,-1.070886850E-3
6.291579292E1,-2.046994865E-3
6.293266785E1,1.894079149E-3
6.294953473E1,2.449229360E-3
6.296643156E1,-2.635322511E-3
6.298330487E1,6.705373526E-4
6.300018843E1,3.503084183E-3
6.301706848E1,-2.202391624E-4
6.303392368E1,3.300204873E-3
6.305084929E1,1.520298421E-3
6.306772284E1,-4.561387002E-3
6.308460223E1,-1.453191042E-3
6.310148340E1,4.177011549E-3
6.311836319E1,-1.277856529E-3
6.313526868E1,-2.183564007E-3
6.315212327E1,-1.099765301E-3
6.316900183E1,-2.109907568E-3
6.318588392E1,-4.015736282E-3
6.320276388E1,2.639196813E-3
6.321964152E1,5.392536521E-3
6.323651235E1,-1.147426665E-3
6.325340426E1,7.002577186E-4
6.327028905E1,-1.907423139E-3
6.328715602E1,5.841478705E-4
6.330403208E1,3.200426698E-3
6.332092063E1,1.881241798E-3
6.333779225E1,3.419153392E-3
6.335467128E1,5.298167467E-3
6.337155161E1,-1.459822059E-3
6.338843160E1,2.740018070E-3
6.340529902E1,2.250447869E-3
6.342219218E1,6.835810840E-3
6.343907217E1,1.054100692E-3
6.345593901E1,1.826591790E-3
6.347283222E1,1.926302910E-3
6.348971239E1,-2.089165151E-3
6.350659260E1,-4.557222128E-4
6.352347271E1,-2.362653613E-4
6.354036469E1,-1.312874258E-3
6.355724410E1,-2.641856670E-3
6.357413009E1,1.287989318E-3
6.359100731E1,4.702724516E-3
6.360788810E1,6.423301995E-3
6.362476718E1,2.677179873E-3
6.364164735E1,2.164371312E-3
6.365852278E1,4.906676710E-3
6.367541098E1,7.435306907E-4
6.369228784E1,1.897037029E-3
6.370916883E1,5.099870265E-3
6.372603993E1,2.606250346E-3
6.374293768E1,4.467643797E-3
6.375980755E1,2.492889762E-3
6.377668857E1,-8.132681251E-4
6.379356251E1,-6.809681654E-4
6.381045496E1,-2.520538867E-3
6.382731211E1,5.409121513E-5
6.384419539E1,-6.595179439E-4
6.386107078E1,-4.314534366E-3
6.387795879E1,3.959938884E-3
6.389483558E1,2.292610705E-3
6.391169562E1,2.001561224E-3
6.392858309E1,8.423402905E-4
6.394547621E1,-1.101590693E-3
6.396235309E1,4.046037793E-4
6.397923938E1,5.962476134E-4
6.399610361E1,-2.318724990E-3
6.401299667E1,-9.048722684E-3
6.402987596E1,-3.373034298E-3
6.404677445E1,1.738809049E-3
6.406363535E1,-3.936141729E-4
6.408053108E1,-2.111122012E-4
6.409740525E1,2.261705697E-3
6.411429660E1,2.486191690E-3
6.413115941E1,3.288030624E-3
6.414804795E1,2.974271774E-4
6.416492559E1,3.383256495E-3
6.418180578E1,2.502501011E-4
6.419867618E1,-2.518869936E-3
6.421555541E1,3.958709538E-3
6.423247613E1,2.042017877E-3
6.424933170E1,2.899013460E-3
6.426621262E1,-2.197615802E-3
6.428309015E1,-1.803599298E-3
6.429997223E1,4.109136760E-3
6.431682326E1,4.957601428E-3
6.433371925E1,4.000365734E-4
6.435059940E1,4.763156176E-4
6.436747790E1,-2.379596233E-3
6.438434789E1,-2.897158265E-3
6.440123967E1,-4.124768078E-3
6.441813720E1,9.011507034E-3
6.443497969E1,-1.163311303E-3
6.445188519E1,-4.456609488E-3
6.446876040E1,7.827825844E-3
6.448564049E1,8.953213692E-4
6.450252081E1,1.709751785E-3
6.451940087E1,-9.774334729E-3
6.453629805E1,4.295200109E-3
6.455317446E1,1.186497509E-3
6.457005540E1,-2.819254994E-3
6.458692206E1,-3.883264959E-3
6.460381517E1,2.954430878E-3
6.462069685E1,4.375427961E-4
6.463757386E1,6.764531136E-4
6.465445572E1,-2.124801278E-3
6.467133559E1,5.524136126E-3
6.468819882E1,-1.457609236E-3
6.470507984E1,-5.394399166E-3
6.472197607E1,5.064286292E-3
6.473885623E1,1.418523490E-3
6.475573721E1,2.079896629E-3
6.477261707E1,-1.962110400E-3
6.478949694E1,-2.530902624E-3
6.480635970E1,1.512289047E-3
6.482323008E1,2.032399178E-3
6.484012324E1,3.925427794E-3
6.485700366E1,2.492628992E-3
6.487388330E1,-1.765444875E-3
6.489075187E1,-1.138746738E-4
6.490765998E1,-2.111539245E-3
6.492452046E1,-4.168793559E-3
6.494140412E1,3.218077123E-3
6.495828436E1,3.642402589E-3
6.497516409E1,-4.242658615E-4
6.499204458E1,1.352354884E-4
6.500892342E1,-2.078376710E-3
6.502581769E1,2.755403519E-3
6.504270298E1,1.189574599E-3
6.505957948E1,3.300219774E-3
6.507645886E1,2.389200032E-3
6.509333950E1,5.017891526E-4
6.511021134E1,8.343830705E-4
6.512710707E1,-3.138490021E-3
6.514397754E1,3.258354962E-3
6.516085688E1,2.455964684E-3
6.517776197E1,8.133620024E-3
6.519462242E1,-8.309185505E-4
6.521150143E1,3.613837063E-3
6.522838010E1,1.340039074E-3
6.524524395E1,-8.091852069E-4
6.526214033E1,-1.101851463E-3
6.527901638E1,-2.255603671E-3
6.529588796E1,2.732448280E-3
6.531276703E1,1.138381660E-3
6.532964588E1,4.882588983E-3
6.534652739E1,-4.459574819E-3
6.536340742E1,-4.096820951E-3
6.538028757E1,1.130327582E-3
6.539718275E1,7.621794939E-4
6.541404519E1,1.869432628E-3
6.543091620E1,3.189273179E-3
6.544780260E1,-2.917706966E-3
6.546469369E1,-2.675175667E-3
6.548156817E1,5.491837859E-3
6.549844856E1,8.512362838E-4
6.551535942E1,4.878185689E-3
6.553220722E1,5.597628653E-3
6.554911179E1,1.648828387E-3
6.556598306E1,2.204202116E-3
6.558284617E1,-1.347810030E-5
6.559974339E1,-3.882288933E-3
6.561661064E1,-3.839425743E-3
6.563349930E1,2.524338663E-3
6.565038098E1,5.337819457E-4
6.566726232E1,-8.231922984E-4
6.568412659E1,8.201748133E-4
6.570102474E1,1.466974616E-3
6.571790132E1,-5.955830216E-3
6.573478367E1,-1.790069044E-3
6.575166508E1,-2.327881753E-3
6.576854480E1,5.929693580E-4
6.578540732E1,1.583620906E-3
6.580229099E1,1.155197620E-3
6.581917107E1,3.342829645E-3
6.583605071E1,3.645278513E-3
6.585293113E1,5.545400083E-3
6.586981180E1,-1.132242382E-3
6.588670879E1,-2.215459943E-3
6.590358155E1,-1.201845706E-3
6.592045204E1,-3.191635013E-3
6.593733183E1,1.607380807E-3
6.595421060E1,5.281209946E-3
6.597109245E1,2.878114581E-3
6.598797236E1,-3.295667470E-3
6.600484867E1,2.661272883E-3
6.602174631E1,1.317150891E-3
6.603863488E1,2.261400223E-3
6.605550720E1,2.365186810E-3
6.607238677E1,3.483384848E-3
6.608925025E1,1.348130405E-3
6.610614534E1,3.489181399E-4
6.612304650E1,-5.065865815E-3
6.613990745E1,1.129403710E-3
6.615679321E1,8.936002851E-4
6.617366190E1,5.032464862E-3
6.619054692E1,4.563041031E-3
6.620742883E1,4.440456629E-3
6.622430751E1,-2.625361085E-4
6.624118469E1,-4.307992756E-3
6.625806707E1,-3.817237914E-3
6.627493350E1,-1.491278410E-3
6.629181770E1,-2.348870039E-3
6.630869465E1,-5.408056080E-3
6.632557033E1,-1.006349921E-4
6.634245978E1,-2.235695720E-3
6.635933386E1,-2.630598843E-3
6.637623250E1,-1.517690718E-3
6.639310297E1,-6.566964090E-3
6.640997838E1,-8.193328977E-4
6.642685568E1,-1.141689718E-3
6.644373576E1,1.702189445E-3
6.646061580E1,9.168908000E-4
6.647749453E1,9.030476213E-3
6.649437304E1,3.167748451E-3
6.651126962E1,-5.595311522E-4
6.652814178E1,-1.162327826E-3
6.654501414E1,-5.328662694E-3
6.656190567E1,-3.106273711E-3
6.657879608E1,-1.001395285E-3
6.659567370E1,1.610778272E-3
6.661255297E1,2.117365599E-3
6.662942350E1,3.222852945E-3
6.664631585E1,4.062272608E-3
6.666318468E1,2.363502979E-3
6.668006904E1,3.260888159E-3
6.669694808E1,3.951862454E-3
6.671383557E1,2.245694399E-3
6.673073518E1,8.224621415E-4
6.674759244E1,8.229911327E-5
6.676445477E1,2.300485969E-3
6.678133844E1,2.014242113E-3
6.679821724E1,1.933827996E-3
6.681509861E1,3.025047481E-3
6.683197860E1,8.862465620E-4
6.684885881E1,1.668922603E-3
6.686577902E1,6.232112646E-4
6.688262711E1,4.873573780E-4
6.689950817E1,1.615732908E-3
6.691637926E1,4.765845835E-3
6.693325963E1,-1.829780638E-3
6.695013966E1,-5.705863237E-3
6.696700654E1,2.436272800E-3
6.698389979E1,-2.098821104E-3
6.700079391E1,3.113567829E-3
6.701767530E1,2.119362354E-3
6.703455396E1,2.031609416E-3
6.705143428E1,3.856383264E-3
6.706831444E1,2.298496664E-3
6.708517802E1,5.048960447E-3
6.710206393E1,-4.235059023E-4
6.711892861E1,-1.225464046E-3
6.713583784E1,8.505217731E-3
6.715271503E1,4.792854190E-3
6.716959487E1,1.321464777E-3
6.718647474E1,-1.021653414E-3
6.720335381E1,3.349088132E-3
6.722023570E1,4.015341401E-3
6.723711664E1,5.206815898E-3
6.725397849E1,1.784659922E-3
6.727086208E1,3.019839525E-3
6.728774233E1,4.954949021E-3
6.730462226E1,-1.757971942E-3
6.732148950E1,-2.693444490E-3
6.733838250E1,-5.010366440E-4
6.735526006E1,1.419760287E-3
6.737214280E1,2.349905670E-3
6.738900980E1,-4.582703114E-4
6.740590316E1,2.773851156E-4
6.742278320E1,4.455178976E-3
6.743966210E1,2.174995840E-3
6.745654332E1,4.708372056E-3
6.747342023E1,2.188414335E-3
6.749032045E1,3.003761172E-3
6.750719999E1,8.096620440E-4
6.752407811E1,6.018802524E-4
6.754095368E1,-3.474615514E-3
6.755783420E1,2.259917557E-3
6.757472435E1,8.225440979E-4
6.759159849E1,1.818351448E-3
6.760848291E1,-9.386017919E-4
6.762533671E1,-1.954138279E-4
6.764224193E1,5.849078298E-4
6.765911055E1,4.724770784E-3
6.767600322E1,1.267276704E-3
6.769288554E1,3.041081131E-3
6.770975262E1,6.239354610E-3
6.772663920E1,8.981525898E-4
6.774350202E1,-1.073144376E-3
6.776038432E1,1.727841794E-3
6.777726580E1,-7.205307484E-4
6.779414573E1,3.675416112E-3
6.781102609E1,-4.405967891E-3
6.782791264E1,-2.727732062E-3
6.784479834E1,1.713007689E-3
6.786167830E1,1.250617206E-3
6.787856412E1,-2.852700651E-3
6.789542666E1,5.563721061E-4
6.791230660E1,2.233147621E-3
6.792917466E1,-3.280855715E-3
6.794606698E1,-1.124903560E-3
6.796295714E1,3.864005208E-3
6.797983092E1,-4.110634327E-3
6.799672885E1,-2.467565238E-3
6.801360095E1,6.890520453E-4
6.803047680E1,-5.380809307E-4
6.804736653E1,4.041329026E-3
6.806421638E1,1.820899546E-3
6.808111608E1,1.453429461E-3
6.809800184E1,-2.627097070E-3
6.811488217E1,7.343962789E-4
6.813174919E1,-3.421157598E-3
6.814862579E1,-2.186439931E-3
6.816550276E1,-7.961466908E-4
6.818240600E1,6.396509707E-3
6.819928250E1,3.387667239E-3
6.821616083E1,1.770131290E-3
6.823301019E1,1.551866531E-3
6.824991162E1,3.603585064E-3
6.826678948E1,1.638695598E-3
6.828366950E1,-1.548416913E-3
6.830054949E1,8.115693927E-4
6.831742969E1,1.151368022E-3
6.833431038E1,3.497771919E-3
6.835120417E1,-1.319184899E-3
6.836807086E1,-2.122901380E-3
6.838494042E1,-1.068674028E-3
6.840182920E1,3.063410521E-3
6.841870732E1,-3.250226378E-3
6.843559403E1,-4.274621606E-3
6.845247070E1,-5.617767572E-3
6.846934971E1,-6.356537342E-4
6.848624880E1,-5.090013146E-3
6.850310395E1,-2.754971385E-3
6.852000919E1,-1.348458230E-3
6.853688532E1,-2.230912447E-3
6.855376538E1,1.661397517E-3
6.857061468E1,-1.876808703E-3
6.858750087E1,-2.470985055E-3
6.860440385E1,5.633980036E-3
6.862128149E1,1.623384655E-3
6.863817005E1,6.279706955E-3
6.865504555E1,1.467019320E-5
6.867192654E1,-1.009427011E-3
6.868880637E1,-2.310097218E-3
6.870568659E1,-3.657624125E-3
6.872254794E1,-2.740614116E-3
6.873943305E1,-1.432038844E-3
6.875629924E1,1.605391502E-3
6.877318971E1,2.650991082E-4
6.879007396E1,3.707110882E-3
6.880695443E1,4.718735814E-3
6.882385074E1,-3.024265170E-4
6.884072332E1,4.683434963E-5
6.885761649E1,-5.107432604E-3
6.887446547E1,-7.089897990E-4
6.889135393E1,5.818203092E-3
