Time (s),Linear Acceleration x (m/s^2)
3.374166659E-2,1.671280414E-3
4.367866658E-2,5.638086330E-3
5.361466657E-2,-1.295439664E-2
6.355166656E-2,-1.458533127E-3
7.348766667E-2,-2.940473389E-3
8.342466666E-2,8.591204323E-4
9.336166666E-2,-4.655114561E-4
1.032976666E-1,-6.003336310E-3
1.132346666E-1,-5.855712388E-3
1.231706666E-1,-6.841534674E-3
1.331076666E-1,-1.081325591E-2
1.430436666E-1,-7.709608655E-3
1.529806666E-1,-2.602211963E-3
1.629166666E-1,8.930160105E-4
1.728536666E-1,-6.893629711E-3
1.827896666E-1,3.263440691E-3
1.927266666E-1,-5.679126475E-3
2.026636666E-1,5.513193458E-3
2.125996667E-1,3.250558544E-3
2.225366667E-1,-3.548291456E-3
2.324726667E-1,2.418408394E-3
2.424096667E-1,-4.816826619E-3
2.523456666E-1,-6.402207781E-3
2.622826666E-1,-1.216714215E-3
2.722186666E-1,-2.693172712E-3
2.821556666E-1,-7.950221580E-3
2.920916666E-1,-4.586811773E-3
3.020286666E-1,-5.414631329E-3
3.119656666E-1,-1.162718832E-2
3.219016666E-1,-7.601928525E-4
3.318386666E-1,-2.732495237E-3
3.417746666E-1,-6.901395544E-3
3.517116666E-1,-1.324282883E-2
3.616476667E-1,-3.074630443E-3
3.715846667E-1,-5.366702434E-3
3.815206666E-1,7.567393407E-4
3.914576666E-1,-4.712782726E-3
4.013936666E-1,2.272301093E-3
4.113306666E-1,-5.119346939E-3
4.212676666E-1,-7.661204673E-3
4.312036666E-1,-5.544128884E-3
4.411406666E-1,2.507048529E-3
4.510766666E-1,4.547160342E-3
4.610130417E-1,3.667300567E-5
4.709490417E-1,3.087147139E-4
4.808860417E-1,1.116434466E-3
4.908220416E-1,9.839767590E-4
5.007590416E-1,-5.085104182E-3
5.106950416E-1,2.838074025E-3
5.206320416E-1,-6.064110808E-4
5.305680416E-1,3.212643005E-3
5.405050416E-1,1.722553186E-3
5.504420416E-1,-1.126100644E-3
5.603780416E-1,-2.440463360E-3
5.703150416E-1,1.783090141E-3
5.802510416E-1,-7.076135930E-3
5.901880416E-1,-2.743075043E-4
6.001240417E-1,-2.989571728E-4
6.100610417E-1,-6.687149908E-3
6.199970416E-1,-7.510967776E-3
6.299340416E-1,-1.199075723E-2
6.398700416E-1,-5.040135439E-3
6.498070416E-1,-6.842009760E-3
6.597440416E-1,-1.345298141E-2
6.696800416E-1,-2.920300495E-3
6.796170416E-1,-3.791553900E-5
6.895530416E-1,6.892588176E-4
6.994900416E-1,-1.129451830E-2
7.094260416E-1,-2.255033534E-3
7.193630416E-1,8.576951735E-4
7.292990417E-1,-2.697576396E-3
7.392360417E-1,-2.300057095E-3
7.491720417E-1,-2.652041204E-3
7.591090417E-1,-2.189270630E-3
7.690460416E-1,-1.169147115E-2
7.789820416E-1,-2.892873399E-3
7.889190416E-1,-4.572906364E-3
7.988550416E-1,-4.603384975E-3
8.087920416E-1,-1.593183540E-4
8.187280416E-1,-5.262859538E-4
8.286650416E-1,4.778234996E-3
8.386010416E-1,2.025164869E-3
8.485380416E-1,-6.493058894E-3
8.584740416E-1,-4.593810160E-3
8.684110416E-1,-7.145114802E-4
8.783470417E-1,-2.144393250E-3
8.882840417E-1,-3.555618748E-3
8.982210417E-1,-9.170206580E-3
9.081570416E-1,-1.111078782E-2
9.180940416E-1,-6.710392591E-3
9.280300416E-1,-2.496413905E-3
9.379670416E-1,-5.012288075E-3
9.479030416E-1,-4.922039956E-3
9.578400416E-1,-2.155265417E-3
9.677760416E-1,-3.307057265E-3
9.777130416E-1,1.828186791E-3
9.876490416E-1,3.188011609E-4
9.975860416E-1,-2.882183958E-3
1.007523042E0,1.986554973E-3
1.017459042E0,2.901333589E-3
1.027396042E0,-6.031384673E-3
1.037332042E0,-1.824203376E-3
1.047269042E0,-6.072169002E-3
1.057205042E0,-4.143154286E-3
1.067142042E0,-9.927640278E-3
1.077078042E0,-2.892964762E-3
1.087015042E0,-8.737750165E-4
1.096951042E0,-2.463103049E-3
1.106888042E0,1.464435160E-3
1.116825042E0,-1.074681692E-2
1.126761042E0,-7.539308500E-3
1.136698042E0,-7.720700093E-3
1.146634042E0,-6.667817552E-3
1.156571042E0,1.171087660E-3
1.166507042E0,-1.400311304E-2
1.176444042E0,-3.114208784E-3
1.186380042E0,-1.693664286E-3
1.196317042E0,-8.561895154E-3
1.206253042E0,-9.624315966E-3
1.216190042E0,-6.554911472E-3
1.226126042E0,-3.932672795E-3
1.236063042E0,-3.647237308E-3
1.246000042E0,-1.144618046E-2
1.255936042E0,-3.828482721E-3
1.265873042E0,-3.224337436E-3
1.275809042E0,-3.719596602E-3
1.285746042E0,-8.097041510E-3
1.295682042E0,-5.519625396E-3
1.305619042E0,-7.357167732E-3
1.315555042E0,-1.127397995E-3
1.325492042E0,-9.179123584E-3
1.335428042E0,-7.999502644E-3
1.345365042E0,8.670324460E-4
1.355301042E0,-4.899802264E-3
1.365238042E0,-3.295344561E-3
1.375175042E0,-4.333097432E-3
1.385111042E0,-1.176388526E-2
1.395048042E0,-6.836052909E-3
1.404984042E0,-3.687016647E-3
1.414921042E0,8.089257404E-5
1.424857042E0,-9.467135500E-3
1.434794042E0,-1.000710759E-2
1.444730042E0,-5.875264015E-3
1.454667375E0,5.286431126E-4
1.464603375E0,-7.601124533E-3
1.474540375E0,-7.417430598E-3
1.484477375E0,8.337033167E-4
1.494413375E0,7.638656348E-4
1.504350375E0,5.850650892E-3
1.514286375E0,-9.915434215E-3
1.524223375E0,-2.768473886E-3
1.534159375E0,-5.772444382E-3
1.544096375E0,-1.184750045E-2
1.554032375E0,-8.466475904E-3
1.563969375E0,-3.529836182E-3
1.573905375E0,-4.677534979E-3
1.583842375E0,-3.902925085E-3
1.593778375E0,-1.538548619E-3
1.603715375E0,-2.816877868E-3
1.613651375E0,-1.089603055E-2
1.623588375E0,-2.599251810E-3
1.633525375E0,-5.739846155E-3
1.643461375E0,-8.615287542E-3
1.653398375E0,-4.670171142E-3
1.663334375E0,-1.017647585E-2
1.673271375E0,-4.247252997E-3
1.683207375E0,-3.328363057E-3
1.693144375E0,-4.730397463E-4
1.703080375E0,2.263256181E-3
1.713017375E0,-2.628250346E-3
1.722953375E0,-1.340620369E-3
1.732890375E0,5.152931884E-3
1.742826375E0,-7.103453390E-4
1.752763375E0,-5.331198871E-3
1.762700375E0,-3.528319560E-3
1.772636375E0,-2.882768679E-3
1.782573375E0,-1.018376660E-2
1.792509375E0,-3.909119479E-3
1.802446375E0,-7.001108844E-3
1.812382375E0,1.664172392E-3
1.822319375E0,-6.524542496E-3
1.832255375E0,-3.351733647E-3
1.842192375E0,8.978034183E-4
1.852128375E0,-4.185784142E-3
1.862065375E0,-6.852845382E-3
1.872001375E0,-7.629739344E-3
1.881938375E0,2.389355041E-3
1.891875375E0,-2.439641096E-3
1.901811375E0,5.033338051E-3
1.911748375E0,1.387142278E-3
1.921684375E0,7.049366646E-4
1.931621375E0,-9.551061317E-4
1.941557375E0,-5.459746253E-3
1.951494375E0,-5.043168683E-3
1.961430375E0,-9.825697728E-3
1.971367375E0,-3.471309207E-3
1.981303375E0,-2.119432949E-3
1.991240375E0,-4.675196093E-3
2.001176375E0,-9.017557707E-3
2.011113375E0,-9.895297866E-3
2.021049375E0,-6.784889773E-3
2.030986375E0,-7.413648181E-3
2.040923375E0,2.326278202E-4
2.050859375E0,-6.246087123E-3
2.060796375E0,-6.419310886E-3
2.070732375E0,-4.144561272E-3
2.080669375E0,-3.859180603E-3
2.090605375E0,-9.385585114E-3
2.100542375E0,-3.450113051E-3
2.110478375E0,-1.577037916E-2
2.120415375E0,-2.269194759E-3
2.130351375E0,-5.162488427E-3
2.140288375E0,-7.068351824E-3
2.150224375E0,-1.023193303E-2
2.160161375E0,1.635173857E-3
2.170098375E0,-5.150081366E-3
2.180034375E0,-7.196131758E-3
2.189971375E0,-4.554652087E-3
2.199907375E0,1.026131529E-3
2.209844375E0,-2.321819700E-3
2.219780375E0,-7.821363565E-3
2.229717375E0,-2.521776203E-3
2.239653375E0,-9.553802200E-4
2.249590375E0,-3.950305805E-3
2.259526375E0,3.573836479E-3
2.269463375E0,-3.166596182E-3
2.279399375E0,-4.369039536E-3
2.289336375E0,-6.460076943E-3
2.299272375E0,-4.279430956E-3
2.309209375E0,-5.276381224E-3
2.319146375E0,4.952317569E-3
2.329082375E0,-4.251346048E-3
2.339019375E0,-5.669917110E-3
2.348955375E0,-1.187105376E-2
2.358892375E0,-9.184495714E-3
2.368828375E0,-2.912936658E-3
2.378765375E0,1.132971123E-3
2.388701375E0,3.268995546E-3
2.398638375E0,1.923057865E-3
2.408574375E0,2.962802444E-3
2.418511375E0,-5.336552728E-3
2.428447375E0,-6.623305622E-3
2.438384375E0,-3.365803510E-3
2.448321375E0,3.305504099E-5
2.458257875E0,-8.154088408E-3
2.468194875E0,-5.891234223E-3
2.478130875E0,-6.065097526E-3
2.488067875E0,-4.392574579E-3
2.498003875E0,5.347461440E-4
2.507940875E0,-1.724362168E-3
2.517876875E0,-5.467347633E-3
2.527813875E0,-4.360433165E-3
2.537749875E0,-7.866515033E-3
2.547686875E0,-6.451452300E-3
2.557622875E0,-4.804218560E-3
2.567559875E0,-4.242556952E-3
2.577495875E0,-3.367283586E-3
2.587432875E0,-5.939985383E-3
2.597368875E0,-5.386509877E-3
2.607305875E0,-5.947678126E-3
2.617242875E0,-2.872207146E-3
2.627178875E0,1.635356583E-3
2.637115875E0,-1.008977260E-2
2.647051875E0,-5.571026076E-3
2.656988875E0,-1.350714125E-2
2.666924875E0,-6.581918299E-3
2.676861875E0,-4.878770560E-5
2.686797875E0,-7.846396957E-3
2.696734875E0,-7.011140473E-3
2.706670875E0,-2.785467356E-3
2.716607875E0,-1.004091181E-2
2.726543875E0,-1.357445732E-2
2.736480875E0,-7.960472479E-3
2.746416875E0,-1.159886587E-2
2.756353875E0,-8.540863451E-3
2.766290875E0,-2.944401987E-3
2.776226875E0,3.597334977E-3
2.786163875E0,-5.673352350E-3
2.796099875E0,-6.334380079E-3
2.806036875E0,-7.498615533E-3
2.815972875E0,-5.650054850E-4
2.825909875E0,-6.153152939E-3
2.835845875E0,-1.128724582E-2
2.845782875E0,-5.786934514E-3
2.855718875E0,-9.246768560E-3
2.865655875E0,-1.154854327E-2
2.875591875E0,-1.331041899E-2
2.885528875E0,-1.313165864E-2
2.895464875E0,-3.468074966E-3
2.905401875E0,-7.293688897E-3
2.915337875E0,-4.394712467E-3
2.925274875E0,-1.110660341E-3
2.935211875E0,6.638051569E-4
2.945147875E0,-4.411614574E-3
2.955084875E0,-1.002686022E-2
2.965020875E0,-8.186284639E-3
2.974957875E0,-9.655945748E-3
2.984893875E0,-5.721463971E-3
2.994830875E0,-8.712333050E-3
3.004766875E0,-1.052723570E-2
3.014703875E0,-7.219465803E-3
3.024639875E0,-4.703335818E-3
3.034576875E0,-6.668128185E-3
3.044512875E0,-5.603679121E-3
3.054449875E0,-3.816020843E-3
3.064385875E0,-5.990344528E-3
3.074322875E0,2.756066825E-3
3.084258875E0,-3.874547817E-3
3.094195875E0,6.401239336E-4
3.104132875E0,1.750108190E-3
3.114068875E0,-4.270587042E-3
3.124005875E0,-2.734450400E-3
3.133941875E0,3.472697921E-4
3.143878875E0,1.742908806E-3
3.153814875E0,-1.409599241E-3
3.163751875E0,-1.093666870E-2
3.173687875E0,-1.988875587E-3
3.183624875E0,-5.890503321E-3
3.193560875E0,-9.219505917E-3
3.203497875E0,-1.190054566E-3
3.213433875E0,-1.624064147E-4
3.223370875E0,-5.397272408E-3
3.233306875E0,-5.175334029E-3
3.243243875E0,3.117845021E-4
3.253179875E0,2.963277530E-3
3.263116875E0,-5.297613926E-3
3.273052875E0,-1.152049491E-2
3.282989875E0,-6.303645652E-3
3.292926875E0,-6.075311881E-3
3.302862875E0,1.457582954E-3
3.312799875E0,3.499942292E-3
3.322735875E0,-7.018979397E-3
3.332672875E0,-7.967288140E-3
3.342608875E0,-4.657343812E-3
3.352545875E0,-4.572595730E-3
3.362481875E0,1.275698002E-3
3.372418875E0,-1.540412419E-3
3.382354875E0,4.892109521E-4
3.392291875E0,-3.970332518E-3
3.402227875E0,-1.048816899E-2
3.412164875E0,-1.730644271E-2
3.422100875E0,-6.827793717E-3
3.432037875E0,-1.235262679E-2
3.441973875E0,-7.570335288E-3
3.451910875E0,-1.021587146E-2
3.461847792E0,-1.428842062E-2
3.471783792E0,2.751498688E-3
3.481720792E0,2.171509713E-4
3.491656792E0,-3.490897380E-3
3.501593792E0,-2.151227184E-4
3.511529792E0,-1.611912902E-3
3.521466792E0,-7.890324164E-3
3.531402792E0,-2.804178447E-3
3.541339792E0,-1.267402265E-3
3.551275792E0,-1.056628413E-3
3.561212792E0,-1.338034803E-2
3.571148792E0,8.111184463E-5
3.581085792E0,-5.020949263E-3
3.591021792E0,-6.336262152E-3
3.600958792E0,-1.532463860E-3
3.610894792E0,-9.218866378E-3
3.620831792E0,-6.104164235E-3
3.630767792E0,-6.786954571E-3
3.640704792E0,-4.946817532E-3
3.650641792E0,-1.886238679E-3
3.660577792E0,4.454957061E-3
3.670514792E0,-7.102813851E-3
3.680450792E0,-5.644938536E-3
3.690387792E0,-5.729887616E-3
3.700323792E0,2.075597104E-3
3.710260792E0,-1.941896863E-3
3.720196792E0,-1.102784872E-3
3.730133792E0,-6.563389935E-3
3.740069792E0,-7.746610567E-3
3.750006792E0,-7.106450088E-3
3.759942792E0,-5.647058152E-3
3.769879792E0,-4.385430012E-3
3.779815792E0,-9.051983189E-3
3.789752792E0,-1.233340407E-2
3.799688792E0,-7.449974008E-3
3.809625792E0,-3.555271570E-3
3.819561792E0,-8.610646315E-3
3.829498792E0,-9.029946495E-3
3.839434792E0,-1.639743822E-2
3.849371792E0,-3.116620760E-3
3.859307792E0,3.133851774E-3
3.869244792E0,-4.126599357E-3
3.879181792E0,-1.771117967E-2
3.889117792E0,-1.211205041E-2
3.899054792E0,-6.072333455E-3
3.908990792E0,-1.184481438E-2
3.918927792E0,-3.117552660E-3
3.928863792E0,-5.481125135E-3
3.938800792E0,-3.648644295E-3
3.948736792E0,-5.064967833E-3
3.958673792E0,-7.837881949E-3
3.968609792E0,-8.703032322E-4
3.978546792E0,-3.136117570E-3
3.988482792E0,-7.653109934E-3
3.998419792E0,-6.324512903E-3
4.008355792E0,-1.621781906E-2
4.018292792E0,-1.158216476E-2
4.028228792E0,-5.605926644E-3
4.038165792E0,-4.415579718E-3
4.048101792E0,-3.455010094E-3
4.058038792E0,-4.605705589E-3
4.067974792E0,-5.589517895E-3
4.077911792E0,-5.111179110E-3
4.087848792E0,-7.129034959E-3
4.097784792E0,-3.268776275E-4
4.107721792E0,-9.999159034E-3
4.117657792E0,-1.842506988E-2
4.127594792E0,-1.710950118E-3
4.137530792E0,-7.828142680E-4
4.147467792E0,-1.206636904E-2
4.157403792E0,-4.109678976E-4
4.167340792E0,-6.437619980E-3
4.177276792E0,-7.961733285E-3
4.187213792E0,4.855162427E-3
4.197149792E0,9.062453359E-4
4.207086792E0,-9.685181826E-3
4.217022792E0,-8.125236053E-3
4.226959792E0,-1.956734173E-3
4.236895792E0,4.038032312E-3
4.246832792E0,1.441375203E-3
4.256768792E0,-3.519238103E-3
4.266705792E0,-1.453361996E-3
4.276641792E0,-1.625142228E-3
4.286578792E0,-2.043199874E-3
4.296514792E0,-8.989015985E-3
4.306451792E0,1.566596981E-3
4.316388792E0,-4.246174917E-4
4.326324792E0,-3.570638783E-3
4.336261792E0,-1.723357178E-3
4.346197792E0,4.672290757E-5
4.356134792E0,-1.982681192E-3
4.366070792E0,-2.475016750E-3
4.376007792E0,-1.946976632E-3
4.385943792E0,-7.829787210E-5
4.395880792E0,2.327539008E-3
4.405816792E0,-1.128254978E-2
4.415753792E0,-2.466538288E-3
4.425689792E0,-2.441504896E-3
4.435626792E0,-7.187982202E-3
4.445562792E0,-6.274957750E-3
4.455499250E0,-1.239620682E-2
4.465435250E0,-2.582313158E-3
4.475372250E0,-3.704540022E-3
4.485308250E0,2.216642909E-3
4.495245250E0,-4.216774385E-3
4.505181250E0,-5.559276827E-3
4.515118250E0,-1.361915197E-2
4.525054250E0,-1.044687303E-2
4.534991250E0,-1.647398192E-3
4.544927250E0,-3.854393195E-3
4.554864250E0,-1.099342324E-2
4.564801250E0,-5.942762811E-3
4.574737250E0,-5.089599229E-3
4.584674250E0,9.589433670E-4
4.594610250E0,-2.059517261E-3
4.604547250E0,-4.838972948E-3
4.614483250E0,-3.565321472E-3
4.624420250E0,-4.127275441E-3
4.634356250E0,-5.689377375E-3
4.644293250E0,-1.162053712E-2
4.654229250E0,-8.283914868E-3
4.664166250E0,-9.532971494E-3
4.674102250E0,-1.280547537E-2
4.684039250E0,-9.248650633E-4
4.693975250E0,-6.306550987E-3
4.703912250E0,-1.260990428E-2
4.713848250E0,-9.921263158E-4
4.723785250E0,5.518309772E-6
4.733721250E0,-2.618949618E-3
4.743658250E0,1.738998480E-4
4.753594250E0,-4.432207737E-3
4.763531250E0,-8.384121526E-3
4.773467250E0,-1.412184807E-2
4.783404250E0,-3.897388503E-3
4.793340250E0,-6.226553768E-3
4.803277250E0,-9.172655102E-3
4.813213250E0,-4.131916668E-3
4.823150250E0,-1.122153774E-2
4.833087250E0,-2.759776153E-3
4.843023250E0,-2.899579424E-3
4.852959250E0,-6.441731304E-3
4.862896250E0,-1.825190093E-3
4.872833250E0,-8.967235107E-3
4.882769250E0,-5.664161257E-3
4.892706250E0,-5.608064532E-3
4.902642250E0,-4.345285222E-3
4.912579250E0,3.725827541E-3
4.922515250E0,5.077959616E-3
4.932452250E0,8.188477345E-4
4.942388250E0,-1.048844308E-2
4.952325250E0,-1.592142005E-3
4.962261250E0,-9.230067451E-3
4.972198250E0,-7.157083321E-3
4.982134250E0,-7.365536559E-3
4.992071250E0,-8.392015267E-3
5.002007250E0,-7.509323247E-3
5.011944250E0,-5.268542301E-3
5.021880250E0,-1.004732547E-2
5.031817250E0,-1.338283310E-2
5.041753250E0,-8.963489234E-3
5.051690250E0,-1.086849382E-2
5.061626250E0,-7.333541326E-3
5.071563250E0,9.764850140E-5
5.081499250E0,-9.725618977E-3
5.091436250E0,-7.536732070E-3
5.101372250E0,-4.178548213E-3
5.111309250E0,7.556064427E-4
5.121245250E0,-5.371234026E-3
5.131182250E0,4.207784291E-3
5.141119250E0,-3.577454444E-3
5.151055250E0,1.691307127E-4
5.160992250E0,-5.156897027E-3
5.170928250E0,-5.387021508E-3
5.180865250E0,1.295998804E-3
5.190801250E0,-1.348420920E-2
5.200738250E0,-9.472525902E-3
5.210674250E0,-3.522636797E-3
5.220611250E0,-3.312447667E-4
5.230547250E0,-9.384543579E-3
5.240484250E0,-1.305131424E-2
5.250420250E0,-3.812439423E-3
5.260357250E0,-1.046794128E-2
5.270293250E0,-4.682139661E-3
5.280230250E0,-1.029011283E-2
5.290166250E0,-5.745583735E-3
5.300103250E0,-6.373775695E-3
5.310039250E0,1.600510832E-3
5.319976250E0,-3.927666117E-3
5.329912250E0,-2.588434462E-3
5.339849250E0,-2.402292006E-3
5.349785250E0,-6.163312476E-3
5.359722250E0,-2.924594544E-3
5.369658250E0,-8.763971273E-3
5.379595250E0,-7.397641428E-3
5.389531250E0,4.067469388E-4
5.399468250E0,-8.038605899E-3
5.409404250E0,-3.387017939E-3
5.419341250E0,-7.959796395E-3
5.429277250E0,-8.832365423E-3
5.439214250E0,-4.058351386E-3
5.449150250E0,-6.470309570E-3
5.459087750E0,5.353674106E-4
5.469023750E0,-1.022623200E-2
5.478960750E0,-8.055599369E-3
5.488896750E0,3.429026529E-3
5.498833750E0,-6.596773881E-3
5.508769750E0,-2.473079860E-3
5.518706750E0,-1.004241016E-3
5.528643750E0,-7.328041289E-3
5.538579750E0,5.728663355E-3
5.548516750E0,-1.121495962E-2
5.558452750E0,-8.929374386E-3
5.568389750E0,-8.063621018E-3
5.578325750E0,-1.183745055E-2
5.588262750E0,1.426921617E-3
5.598198750E0,-1.156842381E-2
5.608135750E0,-6.194357537E-3
5.618071750E0,-8.840916976E-3
5.628008750E0,-2.389958035E-3
5.637944750E0,1.434632633E-3
5.647881750E0,-3.979395702E-4
5.657817750E0,-3.724968731E-3
5.667754750E0,-8.022124059E-3
5.677690750E0,-6.197463870E-3
5.687627750E0,-3.104743604E-3
5.697563750E0,-8.547898382E-4
5.707500750E0,-4.385521375E-3
5.717436750E0,-5.030798167E-3
5.727373750E0,-3.341135569E-3
5.737309750E0,-7.332280520E-3
5.747246750E0,-3.734616637E-3
5.757182750E0,2.906705718E-3
5.767119750E0,4.725116696E-3
5.777055750E0,-2.240086589E-3
5.786992750E0,-4.473850876E-3
5.796928750E0,-2.979138102E-3
5.806865750E0,-2.925782260E-3
5.816801750E0,-9.782428332E-3
5.826738750E0,-9.174427539E-3
5.836674750E0,4.495302849E-3
5.846611750E0,-1.162539762E-2
5.856547750E0,-8.329029791E-3
5.866484750E0,-4.493968952E-3
5.876420750E0,3.308445979E-3
5.886357750E0,-2.472732682E-3
5.896293750E0,-5.687586665E-3
5.906230750E0,1.628778465E-3
5.916166750E0,-9.377289377E-4
5.926103750E0,-3.853552658E-3
5.936039750E0,-1.241309065E-3
5.945976750E0,-1.106731743E-3
5.955912750E0,2.428165935E-3
5.965849750E0,3.914656062E-3
5.975785750E0,8.594310656E-4
5.985722750E0,-9.627806023E-3
5.995658750E0,-8.972735144E-3
6.005595750E0,-2.790291309E-3
6.015532750E0,-2.225231007E-3
6.025468750E0,-1.296336846E-2
6.035405750E0,-2.126760241E-3
6.045341750E0,2.824936062E-4
6.055278750E0,-2.229324058E-3
6.065214750E0,-6.338747218E-4
6.075151750E0,-1.628230289E-3
6.085087750E0,-3.937551565E-4
6.095024750E0,1.493232697E-4
6.104960750E0,-3.531261440E-3
6.114897750E0,2.934077997E-3
6.124833750E0,-5.604062844E-3
6.134770750E0,-6.772720255E-3
6.144706750E0,-6.006223373E-3
6.154643750E0,6.013313122E-3
6.164579750E0,-5.748178437E-4
6.174516750E0,-2.854555864E-3
6.184452750E0,-2.497364078E-3
6.194389750E0,2.918802146E-3
6.204325750E0,7.408805955E-3
6.214262750E0,-4.692646377E-3
6.224198750E0,-8.440656792E-3
6.234135750E0,-2.637825161E-3
6.244071750E0,-6.215169970E-3
6.254008750E0,-3.610162307E-3
6.263944750E0,-4.636001475E-3
6.273881750E0,-2.109529227E-3
6.283817750E0,-6.163202841E-3
6.293754750E0,-1.473406982E-3
6.303690750E0,1.364776678E-4
6.313627750E0,-5.641649477E-3
6.323563750E0,-9.961079042E-3
6.333500750E0,7.276128978E-4
6.343436750E0,3.263659962E-3
6.353373750E0,-4.024601988E-3
6.363309750E0,-5.485145096E-3
6.373246750E0,-6.909910552E-3
6.383182750E0,2.069165166E-3
6.393119750E0,-1.047848454E-2
6.403055750E0,-9.659691621E-3
6.412992750E0,1.253697854E-3
6.422928750E0,2.280998826E-3
6.432865750E0,-4.276233260E-3
6.442801750E0,1.047620047E-3
6.452738750E0,-2.557700034E-3
6.462674000E0,-6.477600317E-3
6.472611000E0,1.340876184E-3
6.482547000E0,-6.911957078E-3
6.492484000E0,-1.094251592E-3
6.502420000E0,-7.982892897E-3
6.512357000E0,-3.099462837E-3
6.522293000E0,3.479879033E-3
6.532230000E0,-7.703213263E-3
6.542166000E0,3.389649186E-3
6.552103000E0,4.528705068E-3
6.562039000E0,-1.832024027E-3
6.571976000E0,5.046000928E-3
6.581912000E0,2.344696932E-3
6.591849000E0,-3.512714803E-4
6.601785000E0,-2.927024793E-3
6.611722000E0,-4.386014733E-3
6.621658000E0,-2.001392283E-4
6.631595000E0,2.419267204E-3
6.641531000E0,-5.451742876E-3
6.651468000E0,6.416277643E-3
6.661404000E0,-4.290485848E-3
6.671341000E0,-1.351163629E-3
6.681277000E0,4.355079308E-4
6.691214000E0,4.278736599E-3
6.701150000E0,-1.043600086E-3
6.711087000E0,-4.900825527E-3
6.721023000E0,-1.446400154E-3
6.730960000E0,-6.859697588E-4
6.740896000E0,1.389426347E-3
6.750833000E0,-4.676146265E-3
6.760769000E0,-1.971023306E-3
6.770706000E0,-2.885235474E-3
6.780642000E0,-3.737065159E-3
6.790579000E0,-5.735935830E-3
6.800515000E0,-7.592262346E-3
6.810452000E0,-1.114899572E-3
6.820388000E0,4.169156123E-3
6.830325000E0,-9.325395338E-4
6.840261000E0,-1.946519818E-3
6.850198000E0,-2.698289026E-3
6.860134000E0,-2.539336123E-3
6.870071000E0,-1.119792961E-2
6.880007000E0,1.368157100E-3
6.889944000E0,1.955692638E-3
6.899880000E0,-8.654061891E-4
6.909817000E0,-6.526881382E-3
6.919753000E0,-1.464489978E-3
6.929690000E0,2.880283613E-3
6.939626000E0,-8.761924747E-3
6.949563000E0,-5.064236932E-4
6.959500000E0,-8.635661434E-3
6.969436000E0,-1.157527601E-2
6.979373000E0,-7.333760597E-3
6.989309000E0,-3.945536669E-3
6.999246000E0,4.454079978E-3
7.009182000E0,-8.480874673E-3
7.019118000E0,-3.741505388E-3
7.029055000E0,-7.368204352E-3
7.038991000E0,8.337764069E-3
7.048928000E0,-1.758933831E-3
7.058864000E0,-5.759434327E-3
7.068801000E0,-2.122192103E-3
7.078738000E0,-2.550372742E-3
7.088674000E0,-3.122614156E-3
7.098610000E0,-4.680074863E-3
7.108547000E0,-4.640021436E-3
7.118483000E0,-1.183147542E-4
7.128420000E0,2.144941427E-3
7.138356000E0,-5.080371592E-3
7.148293000E0,-7.145114802E-3
7.158229000E0,-4.814341553E-3
7.168166000E0,-1.987157967E-3
7.178102000E0,-5.211605038E-3
7.188039000E0,-1.328107327E-2
7.197975000E0,-3.440209329E-3
7.207912000E0,1.796081923E-3
7.217849000E0,-2.290518824E-3
7.227785000E0,-6.824760474E-3
7.237721000E0,-8.482957743E-3
7.247658000E0,-3.911385275E-3
7.257594000E0,-5.531831458E-4
7.267531000E0,-1.872808356E-3
7.277467000E0,-4.915078115E-3
7.287404000E0,-8.880915586E-3
7.297341000E0,-4.293354638E-3
7.307277000E0,-1.832407750E-3
7.317213000E0,3.860806860E-3
7.327150000E0,1.390047614E-3
7.337086000E0,-3.456928711E-3
7.347023000E0,-5.780995935E-3
7.356959000E0,-7.141588200E-3
7.366896000E0,-2.107117251E-3
7.376832000E0,-1.860163752E-3
7.386769000E0,-7.617789097E-3
7.396705000E0,2.259400673E-4
7.406642000E0,-3.720491957E-3
7.416578000E0,-3.402915057E-3
7.426515000E0,2.179988176E-3
7.436451000E0,1.760304272E-3
7.446388000E0,3.774560429E-3
7.456324000E0,-5.427805837E-3
7.466261042E0,-6.644501779E-3
7.476197042E0,-3.144413307E-3
7.486134042E0,-4.411084671E-3
7.496070042E0,-5.125486515E-3
7.506007042E0,8.631952107E-4
7.515943042E0,1.345809773E-3
7.525880042E0,-1.540087167E-2
7.535816042E0,-1.272986356E-2
7.545753042E0,-7.379460242E-3
7.555689042E0,-5.538921207E-3
7.565626042E0,-2.067009006E-3
7.575562042E0,-8.721853048E-3
7.585499042E0,2.553442530E-3
7.595435042E0,-2.121114023E-3
7.605372042E0,-1.194147617E-2
7.615308042E0,-3.951128069E-3
7.625245042E0,-4.319612291E-3
7.635181042E0,-5.752582122E-3
7.645118042E0,-8.437093645E-3
7.655054042E0,4.231337607E-3
7.664991042E0,-5.409058202E-3
7.674927042E0,-3.788063843E-3
7.684864042E0,4.286739975E-5
7.694800042E0,-6.537388097E-3
7.704737042E0,1.438853592E-3
7.714673042E0,2.657285426E-3
7.724610042E0,3.183772378E-3
7.734546042E0,-7.118345518E-3
7.744483042E0,-2.311111987E-4
7.754419042E0,-9.118257724E-3
7.764356042E0,-8.947135303E-3
7.774292042E0,5.139903557E-3
7.784229042E0,1.257041730E-3
7.794165042E0,-7.021007650E-3
7.804102042E0,-1.156487893E-3
7.814038042E0,8.790192381E-4
7.823975042E0,2.440847084E-4
7.833911042E0,-8.940940909E-3
7.843848042E0,-5.586612560E-3
7.853784042E0,1.276903991E-3
7.863721042E0,-4.432920367E-3
7.873657042E0,6.000887789E-4
7.883594042E0,-3.868353423E-3
7.893530042E0,-1.527574126E-2
7.903467042E0,-3.502354268E-3
7.913403042E0,2.899049520E-3
7.923340042E0,-2.226930354E-3
7.933276042E0,4.332293440E-3
7.943213042E0,-4.942797571E-3
7.953149042E0,-5.053364765E-3
7.963086042E0,-8.168560266E-4
7.973022042E0,2.590846438E-3
7.982959042E0,1.401632410E-3
7.992895042E0,-4.756783023E-3
8.002832042E0,-8.517986219E-3
8.012768042E0,-8.142247796E-5
8.022705042E0,-1.969671138E-3
8.032641042E0,-8.520544376E-3
8.042578042E0,-1.020850763E-2
8.052514042E0,-5.944352522E-3
8.062451042E0,-5.516299792E-4
8.072387042E0,-6.166985258E-4
8.082324042E0,-1.609610561E-3
8.092260042E0,-9.472489357E-5
8.102197042E0,1.064467337E-3
8.112133042E0,-3.658237383E-3
8.122070042E0,-4.940330777E-3
8.132006042E0,1.358363014E-3
8.141943042E0,7.034931332E-6
8.151879042E0,-8.326873630E-3
8.161816042E0,-7.914754562E-4
8.171752042E0,8.183543757E-4
8.181689042E0,4.167602956E-4
8.191625042E0,1.473023258E-3
8.201562042E0,2.567658573E-4
8.211498042E0,-4.431568198E-3
8.221435042E0,-7.179613374E-3
8.231371042E0,9.571343847E-4
8.241308042E0,-3.875150811E-3
8.251244042E0,-4.318022579E-3
8.261181042E0,3.269598540E-3
8.271117042E0,-5.379420128E-3
8.281053042E0,-9.179817941E-3
8.290990042E0,-4.032751545E-4
8.300926042E0,-3.799666911E-3
8.310863042E0,-2.784827817E-3
8.320799042E0,-2.667609416E-4
8.330736042E0,1.164399907E-3
8.340672042E0,1.619331557E-3
8.350609042E0,-8.725397922E-3
8.360545042E0,-4.176209327E-3
8.370482042E0,2.426247317E-3
8.380418042E0,-4.688388873E-3
8.390355042E0,-2.088004164E-4
8.400291042E0,-8.436253108E-4
8.410228042E0,-9.877427313E-3
8.420164042E0,-9.256562646E-3
8.430101042E0,-1.061415821E-2
8.440037042E0,-3.771545459E-3
8.449974042E0,4.608702287E-4
8.459910042E0,-5.513193458E-4
8.469847042E0,-4.905521572E-3
8.479783042E0,-2.415228970E-3
8.489720042E0,-2.377678882E-3
8.499656042E0,-6.445751265E-3
8.509593042E0,-5.621476583E-3
8.519529042E0,-6.572014578E-3
8.529466042E0,-4.185656235E-3
8.539402042E0,-2.849165462E-3
8.549339042E0,3.153366856E-3
8.559275042E0,3.857335076E-5
8.569212042E0,-7.704675067E-3
8.579148042E0,-5.891636219E-3
8.589085042E0,-2.158536203E-3
8.599021042E0,-1.331776455E-3
8.608958042E0,-6.405807473E-3
8.618894042E0,-3.172169309E-3
8.628831042E0,-2.994450498E-3
8.638767042E0,-4.016032163E-3
8.648704042E0,2.787879333E-3
8.658640042E0,3.764053714E-3
8.668577042E0,-7.684228085E-3
8.678513042E0,1.948347073E-3
8.688450042E0,3.190295678E-3
8.698386042E0,-7.384850644E-4
8.708323042E0,-5.973314513E-3
8.718259042E0,1.736513413E-3
8.728196042E0,5.337046087E-4
8.738132042E0,-5.569619089E-3
8.748068042E0,-1.064478301E-2
8.758005042E0,-4.379363526E-3
8.767941042E0,-8.549542911E-3
8.777878042E0,-6.479080394E-4
8.787814042E0,1.286369171E-3
8.797751042E0,-2.096592262E-3
8.807687042E0,-1.202147339E-2
8.817624042E0,-3.927519936E-3
8.827560042E0,-4.589022752E-3
8.837497042E0,3.162174225E-3
8.847433042E0,3.811690249E-3
8.857370042E0,-6.622428540E-3
8.867306042E0,5.345268734E-4
8.877243042E0,-5.132028088E-3
8.887179042E0,-7.492128778E-3
8.897116042E0,-7.046333402E-3
8.907052042E0,4.174729250E-4
8.916989042E0,2.766335998E-3
8.926925042E0,-3.821721878E-3
8.936862042E0,3.530073725E-3
8.946798042E0,1.717838868E-3
8.956735042E0,-3.845531009E-3
8.966671042E0,-7.678801138E-3
8.976608042E0,-2.641625851E-3
8.986544042E0,6.076718867E-4
8.996481042E0,-1.135474462E-3
9.006417042E0,-1.314969365E-2
9.016354042E0,-2.168531287E-3
9.026290042E0,4.468734562E-4
9.036227042E0,-8.146706298E-3
9.046163042E0,-5.479937419E-5
9.056100042E0,5.079768598E-3
9.066036042E0,9.415844455E-4
9.075973042E0,-1.096499115E-2
9.085909042E0,-4.390820414E-3
9.095846042E0,5.895601362E-3
9.105782042E0,-6.327747144E-3
9.115719042E0,-4.490332715E-3
9.125655042E0,-7.853194345E-3
9.135592042E0,-5.605323650E-3
9.145528042E0,-3.469573315E-3
9.155464042E0,1.324233547E-2
9.165401042E0,-4.126124270E-4
9.175337042E0,-1.826213356E-3
9.185274042E0,-1.072174698E-2
9.195210042E0,-6.184526905E-4
9.205147042E0,1.590223387E-3
9.215083042E0,-7.529386505E-4
9.225020042E0,-1.789668258E-3
9.234956042E0,-7.977666948E-3
9.244893042E0,-4.583212081E-3
9.254829042E0,-4.197149668E-3
9.264766042E0,7.005092259E-3
9.274702042E0,-5.490590315E-3
9.284639042E0,-5.369827040E-3
9.294575042E0,9.537356906E-4
9.304512042E0,-1.192013383E-2
9.314448042E0,-1.170769718E-2
9.324385042E0,1.403075941E-3
9.334321042E0,-6.679530255E-4
9.344258042E0,-7.890086621E-3
9.354194042E0,-2.464473490E-3
9.364131042E0,-4.560024217E-3
9.374067042E0,-1.002433861E-2
9.384004042E0,-6.285683736E-3
9.393940042E0,2.525558621E-3
9.403877042E0,-7.254293282E-3
9.413813042E0,-5.594049487E-3
9.423750042E0,1.942006499E-3
9.433686042E0,-3.229417205E-3
9.443623042E0,-6.038474422E-3
9.453559042E0,4.476628304E-3
9.463494667E0,-1.616206951E-4
9.473431667E0,-4.241734687E-3
9.483367667E0,-7.126495074E-3
9.493304667E0,-3.499832656E-3
9.503240667E0,-4.022719916E-3
9.513177667E0,-5.305416305E-3
9.523113667E0,-6.267027464E-3
9.533050667E0,-4.090182167E-3
9.542986667E0,-2.717054933E-3
9.552923667E0,-8.803750612E-3
9.562859667E0,-6.300429683E-3
9.572796667E0,-8.794760518E-3
9.582732667E0,-3.492066823E-4
9.592669667E0,6.135191023E-3
9.602605667E0,-1.458935123E-3
9.612542667E0,-2.547741495E-3
9.622478667E0,-7.154159714E-3
9.632415667E0,-4.141582847E-3
9.642351667E0,-3.844050933E-3
9.652288667E0,8.386734501E-4
9.662224667E0,-1.280320957E-3
9.672161667E0,4.706460424E-3
9.682097667E0,-1.358509194E-3
9.692034667E0,-8.957605474E-3
9.701970667E0,-5.745949186E-3
9.711907667E0,-1.635758579E-4
9.721843667E0,3.814705219E-3
9.731780667E0,1.040548570E-3
9.741716667E0,-2.633019481E-3
9.751652667E0,-1.838254966E-3
9.761589667E0,-5.647313967E-4
9.771525667E0,-1.070641631E-2
9.781462667E0,2.602029238E-3
9.791398667E0,-3.693284132E-3
9.801335667E0,-5.250671748E-3
9.811271667E0,-4.201535080E-3
9.821208667E0,-7.258532513E-3
9.831144667E0,-1.297551971E-3
9.841081667E0,9.761195630E-4
9.851017667E0,-1.753799245E-3
9.860954667E0,1.881286819E-3
9.870890667E0,-5.386930145E-3
9.880827667E0,-7.705533877E-5
9.890763667E0,1.493214425E-3
9.900700667E0,1.652569324E-4
9.910636667E0,-4.159489945E-3
9.920573667E0,1.625745222E-3
9.930509667E0,-2.992312610E-3
9.940446667E0,1.311219838E-3
9.950382667E0,-4.451485276E-3
9.960319667E0,-1.334097069E-3
9.970255667E0,-1.205584405E-2
9.980192667E0,-9.039831944E-3
9.990128667E0,-2.404667437E-4
1.000006467E1,-4.009746406E-3
1.001000167E1,-2.017983757E-3
1.001993767E1,-1.292746291E-3
1.002987467E1,3.843521029E-3
1.003981067E1,-2.568864562E-3
1.004974767E1,-1.040513853E-2
1.005968367E1,-1.135333763E-2
1.006962067E1,-6.870533209E-3
1.007955667E1,-5.404800698E-3
1.008949367E1,-2.189672627E-3
1.009942967E1,-2.495262735E-3
1.010936667E1,-5.670373924E-3
1.011930267E1,2.042414155E-3
1.012923967E1,-7.189645004E-3
1.013917567E1,-1.354726776E-4
1.014911267E1,-1.629418004E-3
1.015904867E1,-3.436463457E-3
1.016898567E1,-7.021062467E-3
1.017892167E1,-4.574240260E-3
1.018885867E1,-1.137287099E-2
1.019879467E1,-8.481843118E-3
1.020873167E1,-7.599735819E-4
1.021866767E1,9.526393376E-4
1.022860467E1,-1.272810940E-3
1.023854067E1,1.051128376E-3
1.024847667E1,3.227955401E-3
1.025841367E1,-9.699196871E-3
1.026834967E1,1.853713542E-3
1.027828667E1,1.066051567E-2
1.028822267E1,8.010009360E-3
1.029815967E1,-1.251505148E-3
1.030809567E1,-8.719660342E-4
1.031803267E1,-6.427716259E-3
1.032796867E1,-6.798393186E-3
1.033790567E1,-1.004706966E-2
1.034784167E1,-3.092318270E-3
1.035777867E1,-3.301886134E-3
1.036771467E1,-4.945392273E-3
1.037765167E1,-2.960847281E-3
1.038758767E1,2.985259406E-3
1.039752467E1,-1.487202756E-3
1.040746067E1,-2.835296597E-3
1.041739767E1,-6.106777210E-3
1.042733367E1,-2.201604601E-3
1.043727067E1,-1.928868536E-3
1.044720667E1,-2.364760190E-3
1.045714267E1,7.146741059E-3
1.046708063E1,2.276631687E-3
1.047701662E1,5.977681652E-4
1.048695362E1,-5.533293262E-4
1.049688962E1,-7.541135754E-3
1.050682662E1,-5.378360320E-3
1.051676262E1,-5.053565763E-3
1.052669962E1,-8.131211177E-3
1.053663562E1,-1.668831892E-3
1.054657262E1,-9.166150074E-3
1.055650862E1,9.314797260E-4
1.056644562E1,-7.269989401E-3
1.057638162E1,-1.052372737E-2
1.058631862E1,-4.997286312E-3
1.059625463E1,-1.007109806E-3
1.060619163E1,1.026661433E-3
1.061612762E1,-2.216478456E-3
1.062606462E1,-3.767415863E-3
1.063600062E1,-1.736275870E-3
1.064593762E1,4.176629595E-3
1.065587362E1,-1.024432182E-3
1.066580962E1,-2.861444615E-3
1.067574662E1,-3.057837971E-3
1.068568262E1,-5.282831434E-3
1.069561962E1,-1.192375179E-3
1.070555562E1,1.502898876E-3
1.071549262E1,-2.285804506E-3
1.072542862E1,1.546387542E-3
1.073536563E1,-4.078122284E-3
1.074530162E1,8.136766031E-4
1.075523862E1,2.342979312E-3
1.076517462E1,-5.849682447E-3
1.077511162E1,2.736716196E-3
1.078504762E1,7.653091662E-4
1.079498462E1,4.729721379E-3
1.080492062E1,2.423415072E-3
1.081485762E1,7.665516995E-4
1.082479362E1,-5.174036678E-3
1.083473062E1,-9.132254496E-4
1.084466662E1,2.794493996E-3
1.085460362E1,-2.543209903E-3
1.086453963E1,2.490584962E-3
1.087447562E1,-5.177691188E-3
1.088441262E1,-4.905192666E-3
1.089434862E1,-4.097801819E-3
1.090428562E1,-2.187644374E-3
1.091422162E1,-4.336989485E-4
1.092415862E1,-2.750402335E-3
1.093409462E1,-3.965398930E-3
1.094403162E1,1.570799667E-3
1.095396762E1,-4.608592652E-3
1.096390462E1,1.886256952E-3
1.097384062E1,4.276726618E-3
1.098377762E1,-4.103356674E-3
1.099371363E1,-7.007431146E-3
1.100365063E1,-6.003043950E-3
1.101358662E1,2.038540374E-3
1.102352362E1,-6.640299093E-3
1.103345962E1,-8.887128253E-3
1.104339562E1,2.582422793E-3
1.105333262E1,-1.284340918E-3
1.106326862E1,-7.432706449E-3
1.107320562E1,-1.604530793E-3
1.108314162E1,6.709862687E-4
1.109307862E1,-5.334743746E-3
1.110301462E1,-1.029937701E-2
1.111295162E1,-3.317235075E-3
1.112288762E1,-9.765014593E-3
1.113282463E1,-4.048100486E-3
1.114276062E1,-4.943309203E-3
1.115269762E1,-1.028433871E-3
1.116263362E1,-7.076958194E-4
1.117257062E1,-5.243691634E-3
1.118250662E1,5.361915026E-3
1.119244362E1,5.620983224E-3
1.120237962E1,-4.073316604E-4
1.121231662E1,2.690431830E-3
1.122225262E1,-1.511158068E-3
1.123218862E1,7.954588719E-4
1.124212562E1,-2.084477562E-3
1.125206162E1,-1.366421208E-3
1.126199863E1,2.223476842E-3
1.127193462E1,-2.313121967E-4
1.128187162E1,-7.140181214E-4
1.129180762E1,-1.152851656E-2
1.130174462E1,-7.995994315E-3
1.131168062E1,2.050947435E-3
1.132161762E1,3.534258138E-3
1.133155362E1,4.494681582E-3
1.134149062E1,3.689154536E-3
1.135142662E1,7.037124038E-4
1.136136362E1,-5.376076251E-3
1.137129962E1,-6.609948389E-3
1.138123662E1,4.351991247E-3
1.139117263E1,3.609760311E-3
1.140110862E1,6.579725593E-3
1.141104562E1,-4.281258211E-4
1.142098162E1,1.674204022E-3
1.143091862E1,-5.996283107E-3
1.144085462E1,-1.499043368E-3
1.145079162E1,7.750082351E-3
1.146072762E1,-5.313584134E-3
1.147066475E1,3.149383441E-3
1.148060075E1,4.085486121E-3
1.149053775E1,1.989113130E-3
1.150047375E1,6.046148892E-3
1.151041075E1,-4.900825527E-3
1.152034675E1,-2.732604872E-3
1.153028375E1,-4.321603999E-3
1.154021975E1,3.141782060E-4
1.155015675E1,7.362009957E-3
1.156009275E1,-2.890260424E-3
1.157002875E1,-5.100069400E-3
1.157996575E1,-3.601245303E-3
1.158990175E1,-3.703790847E-3
1.159983875E1,1.966802347E-3
1.160977475E1,-7.153757717E-3
1.161971175E1,2.338886261E-5
1.162964775E1,8.724228479E-4
1.163958475E1,1.036583427E-3
1.164952075E1,5.169669539E-3
1.165945775E1,9.815465100E-4
1.166939375E1,-6.541773509E-3
1.167933075E1,2.065236568E-3
1.168926675E1,-2.291249726E-3
1.169920375E1,-1.716815606E-3
1.170913975E1,9.468652122E-4
1.171907675E1,-3.900823742E-3
1.172901275E1,-1.256703688E-2
1.173894975E1,-6.573056113E-3
1.174888575E1,-8.333725836E-3
1.175882175E1,1.874215342E-3
1.176875875E1,-4.444432072E-3
1.177869475E1,2.547522224E-3
1.178863175E1,5.071089137E-3
1.179856775E1,-5.543891340E-3
1.180850475E1,1.061719146E-2
1.181844075E1,3.856403176E-3
1.182837775E1,-1.047956262E-2
1.183831375E1,3.370188922E-4
1.184825075E1,-4.971595109E-4
1.185818675E1,4.329114016E-3
1.186812375E1,-3.963553403E-3
1.187805975E1,-5.117501412E-3
1.188799675E1,-6.859953403E-3
1.189793275E1,-1.777480468E-3
1.190786875E1,-2.790839486E-3
1.191780575E1,-4.761003982E-3
1.192774175E1,-4.797073994E-3
1.193767875E1,-1.534309387E-3
1.194761475E1,1.489559915E-3
1.195755175E1,7.940774672E-3
1.196748775E1,-1.173426546E-3
1.197742475E1,-8.567340374E-3
1.198736075E1,2.774522100E-3
1.199729775E1,7.519007698E-3
1.200723375E1,6.098846924E-3
1.201717075E1,3.352007736E-3
1.202710675E1,-7.413227912E-3
1.203704375E1,1.682664212E-3
1.204697975E1,-3.125318494E-3
1.205691575E1,-1.362858061E-3
1.206685275E1,3.472204562E-3
1.207678875E1,5.422013439E-4
1.208672575E1,4.209026825E-3
1.209666175E1,1.542312764E-3
1.210659875E1,3.349906392E-4
1.211653475E1,2.500945497E-3
1.212647175E1,1.188939940E-3
1.213640775E1,-1.947086267E-3
1.214634475E1,3.216790874E-3
1.215628075E1,-6.867518239E-3
1.216621775E1,-1.965925265E-3
1.217615375E1,-5.059942883E-3
1.218609075E1,-2.526874244E-3
1.219602675E1,-5.523352996E-3
1.220596275E1,1.713490002E-3
1.221589975E1,-5.401913635E-4
1.222583575E1,-6.540476158E-4
1.223577275E1,5.565270223E-3
1.224570875E1,-3.105766866E-3
1.225564575E1,2.041317802E-3
1.226558175E1,1.056683231E-3
1.227551875E1,-1.869245209E-3
1.228545475E1,1.026661433E-3
1.229539175E1,-8.602880482E-3
1.230532775E1,-4.251400866E-3
1.231526475E1,2.913046293E-3
1.232520075E1,3.524555415E-3
1.233513775E1,3.166998178E-4
1.234507375E1,-3.349540941E-3
1.235500975E1,-1.085955855E-3
1.236494675E1,1.106157985E-2
1.237488275E1,-5.792288370E-3
1.238481975E1,2.699805647E-3
1.239475575E1,1.374168769E-3
1.240469275E1,-2.948001679E-3
1.241462875E1,-5.651735924E-3
1.242456575E1,-5.373993181E-3
1.243450175E1,4.759432543E-3
1.244443875E1,1.037478782E-3
1.245437475E1,3.201843929E-3
1.246431150E1,-2.581253350E-3
1.247424750E1,-8.436984010E-4
1.248418350E1,-5.324876569E-3
1.249412050E1,-6.882008370E-3
1.250405650E1,-5.535668693E-4
1.251399350E1,2.420509737E-3
1.252392950E1,4.412400294E-3
1.253386650E1,-5.784613900E-3
1.254380250E1,9.055875242E-4
1.255373950E1,-1.486855578E-3
1.256367550E1,-2.994267773E-3
1.257361250E1,3.215548340E-3
1.258354850E1,5.052049141E-3
1.259348550E1,9.592905454E-4
1.260342150E1,-5.959902462E-3
1.261335850E1,2.673109453E-3
1.262329450E1,1.560073681E-3
1.263323050E1,-7.034127340E-3
1.264316750E1,1.583535634E-3
1.265310350E1,2.511105035E-3
1.266304050E1,-1.443622727E-3
1.267297650E1,5.979874358E-4
1.268291350E1,6.050205398E-3
1.269284950E1,5.920159668E-3
1.270278650E1,4.007334430E-3
1.271272250E1,2.655019630E-3
1.272265950E1,-1.377019286E-3
1.273259550E1,4.370154161E-3
1.274253250E1,2.130597476E-3
1.275246850E1,-3.176152725E-3
1.276240550E1,3.157679178E-4
1.277234150E1,-1.023555100E-3
1.278227750E1,-9.208999202E-4
1.279221450E1,2.635997906E-3
1.280215050E1,7.001072299E-3
1.281208750E1,2.860092446E-3
1.282202350E1,-3.018625081E-5
1.283196050E1,-4.643913489E-3
1.284189650E1,8.933540527E-3
1.285183350E1,-3.174215835E-3
1.286176950E1,1.043801084E-3
1.287170650E1,-3.589039240E-3
1.288164250E1,3.262782879E-3
1.289157950E1,-5.505994074E-3
1.290151550E1,9.008110799E-3
1.291145150E1,-2.459978443E-3
1.292138850E1,-5.622463301E-5
1.293132450E1,-1.168821864E-3
1.294126150E1,5.202870760E-3
1.295119750E1,4.456601590E-3
1.296113450E1,-2.947234232E-3
1.297107050E1,8.095104620E-4
1.298100750E1,2.917833701E-3
1.299094350E1,7.301345095E-4
1.300088050E1,5.431880616E-4
1.301081650E1,9.001423046E-4
1.302075350E1,-6.046386436E-5
1.303068950E1,-9.864800982E-4
1.304062550E1,-2.404777072E-3
1.305056250E1,1.374698672E-3
1.306049850E1,-3.485908974E-3
1.307043550E1,-2.589695267E-3
1.308037150E1,4.617637563E-3
1.309030850E1,3.206777517E-3
1.310024450E1,6.111272257E-3
1.311018150E1,-1.223913599E-3
1.312011750E1,-6.941777878E-3
1.313005450E1,-3.470724486E-3
1.313999050E1,5.190079976E-3
1.314992750E1,1.115067679E-2
1.315986350E1,-2.994688042E-4
1.316979950E1,8.700474165E-4
1.317973650E1,1.119358074E-3
1.318967250E1,-1.050530864E-2
1.319960950E1,-9.513675682E-3
1.320954550E1,-5.169431996E-3
1.321948250E1,-5.523955990E-3
1.322941850E1,-1.867856495E-3
1.323935550E1,8.880129866E-3
1.324929150E1,-2.933127824E-3
1.325922850E1,-5.643257461E-3
1.326916450E1,-1.306085251E-3
1.327910150E1,-1.846879609E-3
1.328903750E1,5.007811300E-3
1.329897350E1,2.133557629E-3
1.330891050E1,-3.302818034E-3
1.331884650E1,5.173872225E-4
1.332878350E1,-5.663814079E-3
1.333871950E1,4.365421571E-3
1.334865650E1,4.842115827E-3
1.335859250E1,4.082416333E-3
1.336852950E1,-5.376514792E-4
1.337846550E1,1.467906944E-3
1.338840250E1,3.008940630E-4
1.339833850E1,5.517085511E-3
1.340827550E1,-3.163416758E-3
1.341821150E1,2.398454770E-4
1.342814750E1,-3.179350421E-3
1.343808450E1,4.204148054E-4
1.344802050E1,2.246847432E-3
1.345795750E1,-2.987744473E-3
1.346789342E1,4.141582847E-3
1.347783042E1,3.366095871E-3
1.348776642E1,-3.013051953E-3
1.349770342E1,-3.379745465E-3
1.350763942E1,1.101103798E-3
1.351757642E1,-1.346759945E-3
1.352751242E1,-2.004717886E-3
1.353744842E1,4.919244256E-3
1.354738542E1,5.467859264E-3
1.355732142E1,3.389923275E-3
1.356725842E1,-3.695111386E-3
1.357719442E1,1.933601126E-3
1.358713142E1,1.137416834E-2
1.359706742E1,1.613191981E-3
1.360700442E1,7.704382706E-3
1.361694042E1,3.020287883E-3
1.362687742E1,3.191848844E-3
1.363681342E1,6.067546047E-3
1.364675042E1,-3.132262062E-3
1.365668642E1,2.722865604E-3
1.366662242E1,2.176150940E-3
1.367655942E1,9.556999896E-3
1.368649542E1,-1.902775336E-3
1.369643242E1,9.851462021E-4
1.370636842E1,1.441667564E-3
1.371630542E1,1.187507372E-2
1.372624142E1,-1.106896196E-3
1.373617842E1,8.142247796E-4
1.374611442E1,1.187496409E-3
1.375605142E1,-5.101202298E-3
1.376598742E1,4.353800230E-4
1.377592442E1,4.822673835E-3
1.378586042E1,4.149421770E-3
1.379579642E1,1.218183327E-2
1.380573342E1,8.140237816E-3
1.381566942E1,8.510220386E-3
1.382560642E1,8.868015166E-3
1.383554242E1,-2.177594472E-3
1.384547942E1,9.053518083E-3
1.385541542E1,-5.371033028E-4
1.386535242E1,7.623928674E-3
1.387528842E1,9.901236445E-3
1.388522542E1,5.573054329E-3
1.389516142E1,6.910422184E-3
1.390509742E1,7.458489016E-4
1.391503442E1,-1.227769107E-3
1.392497042E1,1.019388959E-3
1.393490742E1,6.724681724E-3
1.394484342E1,8.362852279E-3
1.395478042E1,9.095855579E-3
1.396471642E1,6.002733316E-3
1.397465342E1,1.658105906E-3
1.398458942E1,2.255727891E-3
1.399452642E1,1.565390993E-3
1.400446242E1,4.246485550E-3
1.401439842E1,1.034317631E-3
1.402433542E1,3.582040854E-3
1.403427142E1,1.346200805E-2
1.404420842E1,3.392901700E-3
1.405414442E1,6.634397060E-3
1.406408142E1,1.551266313E-3
1.407401742E1,-8.487598971E-4
1.408395442E1,5.524796527E-3
1.409389042E1,3.044115286E-3
1.410382742E1,3.797949292E-3
1.411376342E1,9.608437121E-4
1.412369942E1,4.888930097E-3
1.413363642E1,-8.435339481E-4
1.414357242E1,1.883388162E-3
1.415350942E1,1.657100916E-3
1.416344542E1,2.364431284E-3
1.417338242E1,-5.388757400E-4
1.418331842E1,3.590482771E-3
1.419325542E1,3.637900036E-3
1.420319142E1,5.724296216E-3
1.421312842E1,-1.986500155E-3
1.422306442E1,3.127767015E-3
1.423300142E1,7.302953079E-3
1.424293742E1,3.753620088E-3
1.425287342E1,1.103811789E-2
1.426281042E1,3.640915006E-3
1.427274642E1,9.443235006E-3
1.428268342E1,1.363497600E-2
1.429261942E1,-1.000056602E-4
1.430255642E1,-7.747378014E-3
1.431249242E1,7.861508355E-3
1.432242942E1,8.148972094E-3
1.433236542E1,6.271851417E-3
1.434230242E1,9.715112261E-3
1.435223842E1,-4.881566260E-3
1.436217442E1,5.370411761E-3
1.437211142E1,-9.812541492E-4
1.438204742E1,1.082560815E-2
1.439198442E1,1.142852917E-2
1.440192042E1,1.209606193E-2
1.441185742E1,5.638086330E-3
1.442179342E1,9.863668084E-3
1.443173042E1,1.275652321E-2
1.444166642E1,9.782209061E-4
1.445160342E1,2.251050118E-3
1.446153942E1,-5.740138516E-3
1.447147475E1,2.070261519E-3
1.448141175E1,1.006399004E-2
1.449134775E1,4.801605586E-3
1.450128475E1,7.981047370E-3
1.451122075E1,-4.457697943E-3
1.452115775E1,8.214479182E-3
1.453109375E1,5.183008499E-3
1.454103075E1,-5.132375266E-3
1.455096675E1,-4.310859740E-4
1.456090375E1,2.791442480E-3
1.457083975E1,5.765299816E-3
1.458077575E1,6.523007601E-3
1.459071275E1,1.494762110E-2
1.460064875E1,9.282180760E-3
1.461058575E1,6.658827458E-3
1.462052175E1,3.054603729E-3
1.463045875E1,3.801658619E-3
1.464039475E1,3.212716095E-3
1.465033175E1,1.487467708E-2
1.466026775E1,6.415491924E-5
1.467020475E1,-6.284185387E-3
1.468014075E1,4.964085091E-3
1.469007675E1,6.886448599E-3
1.470001375E1,1.412102580E-4
1.470994975E1,-1.937146001E-3
1.471988675E1,4.445016794E-3
1.472982275E1,4.292605463E-3
1.473975975E1,-2.525448985E-4
1.474969575E1,-1.098691821E-3
1.475963275E1,4.418174420E-3
1.476956875E1,8.342167754E-3
1.477950575E1,1.314929165E-2
1.478944175E1,9.176273067E-3
1.479937775E1,1.235986272E-2
1.480931475E1,1.932870224E-3
1.481925075E1,8.687372748E-3
1.482918775E1,7.533114105E-3
1.483912375E1,1.285967175E-3
1.484906075E1,4.278097060E-3
1.485899675E1,3.667410202E-3
1.486893375E1,4.316158779E-4
1.487886975E1,-1.204179246E-3
1.488880675E1,4.445089884E-3
1.489874275E1,7.709097024E-3
1.490867875E1,8.207298070E-3
1.491861575E1,4.590831734E-3
1.492855175E1,4.934154656E-3
1.493848875E1,8.789242208E-3
1.494842475E1,1.216421854E-3
1.495836175E1,5.364619363E-3
1.496829775E1,3.063045647E-3
1.497823475E1,4.572467823E-3
1.498817075E1,9.246055931E-3
1.499810675E1,6.642290801E-3
1.500804375E1,1.171644973E-2
1.501797975E1,1.096952274E-2
1.502791675E1,6.869089678E-3
1.503785275E1,6.278740168E-3
1.504778975E1,1.267908415E-2
1.505772575E1,4.418210965E-3
1.506766275E1,2.501511946E-5
1.507759875E1,1.061086915E-4
1.508753575E1,7.391026765E-3
1.509747175E1,-3.777301311E-3
1.510740775E1,-6.702352669E-3
1.511734475E1,6.989012416E-3
1.512728075E1,5.436923839E-3
1.513721775E1,9.365594946E-3
1.514715375E1,5.655883793E-3
1.515709075E1,-4.172847178E-3
1.516702675E1,-1.782560237E-3
1.517696375E1,6.755507514E-3
1.518689975E1,7.466839571E-3
1.519683675E1,6.764515880E-3
1.520677275E1,2.274384163E-3
1.521670875E1,2.263932265E-3
1.522664575E1,3.816587292E-4
1.523658175E1,-5.062775128E-4
1.524651875E1,-1.726207696E-3
1.525645475E1,-8.196334541E-4
1.526639175E1,1.001607941E-2
1.527632775E1,7.179540284E-3
1.528626475E1,1.009165468E-2
1.529620075E1,4.409842137E-3
1.530613675E1,8.233647086E-3
1.531607375E1,3.745708074E-3
1.532600975E1,4.042034000E-3
1.533594675E1,3.613944724E-4
1.534588275E1,1.937456634E-3
1.535581975E1,1.041948248E-2
1.536575575E1,1.412203079E-2
1.537569275E1,-3.520937450E-4
1.538562875E1,5.247510597E-4
1.539556575E1,2.869374901E-3
1.540550175E1,-4.928088170E-3
1.541543775E1,2.364230286E-3
1.542537475E1,3.327321522E-3
1.543531075E1,-1.346668582E-3
1.544524775E1,7.712568808E-3
1.545518375E1,2.372270208E-3
1.546512075E1,1.975061540E-3
1.547505700E1,4.891396891E-3
1.548499400E1,2.075469196E-3
1.549493000E1,-1.551083587E-3
1.550486600E1,1.292949116E-2
1.551480300E1,2.307274751E-3
1.552473900E1,2.859215364E-3
1.553467600E1,2.150331829E-3
1.554461200E1,-1.187478136E-3
1.555454900E1,7.993034162E-3
1.556448500E1,6.866823882E-3
1.557442200E1,-2.489123158E-3
1.558435800E1,5.664343983E-3
1.559429500E1,-3.531151805E-3
1.560423100E1,4.001688212E-5
1.561416700E1,4.764420949E-3
1.562410400E1,9.186359514E-3
1.563404000E1,6.093694065E-3
1.564397700E1,6.528544184E-3
1.565391300E1,-2.353650481E-3
1.566385000E1,7.967014052E-3
1.567378600E1,7.364915293E-3
1.568372300E1,5.974739771E-3
1.569365900E1,-3.941151258E-3
1.570359500E1,1.436624341E-3
1.571353200E1,1.719392035E-3
1.572346800E1,5.375729073E-3
1.573340500E1,1.187423319E-3
1.574334100E1,8.971090615E-4
1.575327800E1,-2.646760438E-3
1.576321400E1,1.309118494E-3
1.577315100E1,6.612287275E-4
1.578308700E1,-2.088333070E-3
1.579302400E1,7.284205444E-3
1.580296000E1,4.005397540E-3
1.581289600E1,4.983307812E-3
1.582283300E1,4.246650003E-3
1.583276900E1,1.293522874E-2
1.584270600E1,4.885476585E-3
1.585264200E1,4.249116797E-3
1.586257900E1,5.619247332E-3
1.587251500E1,8.207371160E-3
1.588245200E1,1.140702238E-2
1.589238800E1,-3.034522198E-3
1.590232400E1,4.254872650E-3
1.591226100E1,2.427709121E-3
1.592219700E1,1.106731743E-3
1.593213400E1,8.136035129E-4
1.594207000E1,4.955953807E-3
1.595200700E1,-2.334610485E-3
1.596194300E1,2.372836657E-3
1.597188000E1,4.290558938E-3
1.598181600E1,1.105014123E-3
1.599175200E1,-5.617694166E-3
1.600168900E1,-3.709893879E-3
1.601162500E1,-2.076236643E-3
1.602156200E1,1.461127829E-3
1.603149800E1,3.799904454E-3
1.604143500E1,-9.237504378E-4
1.605137100E1,1.638243645E-3
1.606130800E1,-2.534365989E-3
1.607124400E1,-3.676784020E-3
1.608118100E1,2.174798772E-4
1.609111700E1,1.488938648E-3
1.610105300E1,-2.604569122E-4
1.611099000E1,-5.082162302E-3
1.612092600E1,3.952516783E-3
1.613086300E1,1.180607658E-3
1.614079900E1,1.952750757E-3
1.615073600E1,8.845028300E-3
1.616067200E1,-7.906349190E-4
1.617060900E1,8.626653068E-3
1.618054500E1,-2.752503678E-3
1.619048100E1,-6.050004400E-3
1.620041800E1,-5.111983102E-3
1.621035400E1,6.314262003E-4
1.622029100E1,4.323065802E-3
1.623022700E1,6.836034637E-3
1.624016400E1,-5.188873988E-3
1.625010000E1,-3.958510179E-3
1.626003700E1,1.573997363E-3
1.626997300E1,7.057991289E-3
1.627990900E1,9.478300028E-3
1.628984600E1,6.836692449E-3
1.629978200E1,7.237665262E-3
1.630971900E1,7.161962092E-3
1.631965500E1,1.315325679E-2
1.632959200E1,-7.881059982E-3
1.633952800E1,-3.905720785E-3
1.634946500E1,3.914053068E-3
1.635940100E1,-9.308767319E-4
1.636933700E1,3.711666316E-3
1.637927400E1,1.248362269E-3
1.638921000E1,1.725831281E-2
1.639914700E1,3.147081099E-3
1.640908300E1,3.756836057E-3
1.641902000E1,-3.168277256E-3
1.642895600E1,3.711136412E-3
1.643889300E1,-3.405199125E-3
1.644882900E1,3.970844150E-3
1.645876500E1,2.209443524E-3
1.646870229E1,-3.744703084E-3
1.647863829E1,5.238447413E-3
1.648857529E1,3.096904680E-3
1.649851129E1,6.434897371E-3
1.650844829E1,8.895259537E-3
1.651838429E1,1.665926557E-3
1.652832129E1,6.986216716E-3
1.653825729E1,5.806741957E-3
1.654819329E1,-1.295103449E-3
1.655813029E1,-4.011043757E-3
1.656806629E1,-2.291395906E-3
1.657800329E1,1.972302385E-3
1.658793929E1,5.374285541E-3
1.659787629E1,4.030211661E-3
1.660781229E1,2.730978616E-3
1.661774929E1,5.003681704E-3
1.662768529E1,5.474875923E-3
1.663762229E1,-1.007164624E-3
1.664755829E1,-1.931572873E-3
1.665749429E1,8.945362866E-3
1.666743129E1,1.557935793E-2
1.667736729E1,5.438385643E-3
1.668730429E1,6.509595551E-4
1.669724029E1,4.166068062E-3
1.670717729E1,3.392170798E-3
1.671711329E1,5.975141767E-3
1.672704929E1,1.538055260E-3
1.673698629E1,7.716771495E-3
1.674692229E1,6.096434947E-3
1.675685929E1,4.730050284E-3
1.676679529E1,-6.502834707E-4
1.677673229E1,-2.894737199E-3
1.678666829E1,6.916671395E-3
1.679660529E1,1.564312913E-4
1.680654129E1,-2.479530070E-3
1.681647729E1,6.535688750E-3
1.682641429E1,9.653003868E-3
1.683635029E1,5.201756135E-3
1.684628729E1,2.381132394E-3
1.685622329E1,1.000054775E-2
1.686616029E1,1.093425673E-2
1.687609629E1,6.577679068E-3
1.688603329E1,-8.192314580E-3
1.689596929E1,-2.002525181E-3
1.690590529E1,-2.306361124E-3
1.691584229E1,1.637147292E-2
1.692577829E1,6.094589420E-3
1.693571529E1,1.281526946E-3
1.694565129E1,2.603545859E-3
1.695558829E1,6.747723408E-3
1.696552429E1,2.344240118E-3
1.697546129E1,-1.044422351E-3
1.698539729E1,3.926569764E-3
1.699533329E1,7.802561112E-4
1.700527029E1,3.763194904E-3
1.701520629E1,4.292605463E-3
1.702514329E1,2.400263753E-3
1.703507929E1,-1.257752532E-2
1.704501629E1,7.238871250E-3
1.705495229E1,4.764658492E-3
1.706488929E1,-7.345327120E-3
1.707482529E1,-3.963900581E-3
1.708476129E1,6.876325607E-3
1.709469829E1,3.280123528E-3
1.710463429E1,-8.452442586E-3
1.711457129E1,-4.694674630E-3
1.712450729E1,-2.143991254E-3
1.713444429E1,2.722865604E-3
1.714438029E1,5.314863212E-3
1.715431729E1,-5.337210540E-3
1.716425329E1,-1.069949102E-3
1.717418929E1,-3.360559288E-3
1.718412629E1,5.057329908E-3
1.719406229E1,-7.053752057E-4
1.720399929E1,7.086587828E-3
1.721393529E1,2.081553955E-3
1.722387229E1,7.363106310E-4
1.723380829E1,6.430109963E-3
1.724374529E1,5.615592822E-3
1.725368129E1,-1.247448642E-3
1.726361729E1,1.053986203E-2
1.727355429E1,5.281351358E-3
1.728349029E1,3.333790004E-3
1.729342729E1,1.435984802E-3
1.730336329E1,5.973917507E-3
1.731330029E1,1.118833652E-2
1.732323629E1,5.299861450E-3
1.733317329E1,8.164430670E-3
1.734310929E1,-9.814551473E-4
1.735304529E1,2.880320158E-3
1.736298229E1,3.127602562E-3
1.737291829E1,-1.359660365E-4
1.738285529E1,-1.889271922E-3
1.739279129E1,2.784626819E-3
1.740272829E1,1.667223908E-3
1.741266429E1,1.784259584E-3
1.742260129E1,-1.312517188E-3
1.743253729E1,6.231779717E-3
1.744247329E1,-3.313215114E-3
1.745241029E1,4.838424772E-3
1.746234629E1,1.048113406E-3
1.747228400E1,1.491533350E-3
1.748222000E1,1.840301491E-3
1.749215700E1,-2.761201411E-3
1.750209300E1,3.649850283E-3
1.751203000E1,-3.788447566E-4
1.752196600E1,3.741560206E-3
1.753190200E1,2.675832063E-3
1.754183900E1,7.671437301E-3
1.755177500E1,7.489022445E-3
1.756171200E1,-8.845558204E-4
1.757164800E1,1.540741324E-4
1.758158500E1,-1.059807837E-3
1.759152100E1,3.378831837E-3
1.760145700E1,2.834583968E-3
1.761139400E1,-3.185270727E-4
1.762133000E1,-4.242703132E-4
1.763126700E1,5.844986401E-3
1.764120300E1,4.028201681E-3
1.765114000E1,5.373664275E-3
1.766107600E1,3.923390340E-3
1.767101300E1,1.205366962E-3
1.768094900E1,3.680657800E-3
1.769088500E1,-3.775839508E-4
1.770082200E1,3.615095895E-3
1.771075800E1,-1.620044187E-4
1.772069500E1,-5.116295423E-3
1.773063100E1,-1.544560287E-3
1.774056800E1,2.460069805E-3
1.775050400E1,-1.831823029E-4
1.776044100E1,2.604349852E-3
1.777037700E1,-4.115306921E-3
1.778031300E1,9.935387839E-3
1.779025000E1,2.906833626E-3
1.780018600E1,-5.635308903E-3
1.781012300E1,4.403099567E-3
1.782005900E1,1.091108713E-2
1.782999600E1,4.876431674E-3
1.783993200E1,-1.305792890E-3
1.784986800E1,-4.319082387E-4
1.785980500E1,-1.443714090E-3
1.786974100E1,3.655258957E-3
1.787967800E1,3.126433119E-4
1.788961400E1,1.481081452E-3
1.789955100E1,1.831329670E-3
1.790948700E1,-4.738930743E-3
1.791942400E1,7.540752031E-3
1.792936000E1,5.720422436E-3
1.793929600E1,3.146167472E-3
1.794923300E1,3.479769398E-3
1.795916900E1,8.463643659E-3
1.796910600E1,2.326113749E-3
1.797904200E1,5.143941790E-3
1.798897900E1,3.624323532E-3
1.799891500E1,-2.985332496E-3
1.800885200E1,4.078798369E-4
1.801878800E1,1.884996146E-4
1.802872400E1,2.672543004E-3
1.803866100E1,-8.861089870E-4
1.804859700E1,-3.571716864E-3
1.805853400E1,-1.621615626E-3
1.806847000E1,1.953792293E-3
1.807840700E1,2.209205981E-3
1.808834300E1,4.504183307E-3
1.809827900E1,-1.931956597E-3
1.810821600E1,3.602305111E-3
1.811815200E1,1.324979067E-3
1.812808900E1,4.449036755E-3
1.813802500E1,8.009662181E-3
1.814796200E1,3.793289792E-3
1.815789800E1,6.691973861E-3
1.816783500E1,-5.516427699E-3
1.817777100E1,-1.040347572E-3
1.818770700E1,7.034730334E-3
1.819764400E1,-2.365198731E-3
1.820758000E1,5.376551338E-3
1.821751700E1,6.974887736E-3
1.822745300E1,3.314951006E-3
1.823739000E1,2.252292652E-3
1.824732600E1,-3.659808822E-3
1.825726200E1,9.645110127E-3
1.826719900E1,1.032797355E-2
1.827713500E1,1.598829757E-3
1.828707200E1,-1.690667588E-3
1.829700800E1,-8.969628811E-4
1.830694500E1,-1.699639410E-3
1.831688100E1,3.672782332E-5
1.832681800E1,3.188578058E-3
1.833675400E1,-2.803063821E-3
1.834669000E1,-1.083580423E-3
1.835662700E1,-7.784891557E-3
1.836656300E1,3.392115980E-4
1.837650000E1,7.188713104E-3
1.838643600E1,-1.135821640E-3
1.839637300E1,2.134160623E-3
1.840630900E1,-2.135238703E-3
1.841624500E1,-7.166859135E-4
1.842618200E1,6.507622115E-3
1.843611800E1,4.261944126E-3
1.844605500E1,-3.743259553E-3
1.845599100E1,-1.798749715E-4
1.846592800E1,-2.408340219E-3
1.847586350E1,1.967350524E-3
1.848580050E1,4.956173077E-3
1.849573650E1,3.151941597E-3
1.850567250E1,3.902285546E-4
1.851560950E1,-3.765606880E-4
1.852554550E1,-2.379232049E-3
1.853548250E1,-1.017653067E-3
1.854541850E1,2.922730744E-3
1.855535550E1,-5.244221538E-5
1.856529150E1,5.841953158E-3
1.857522750E1,3.185288999E-3
1.858516450E1,2.382320110E-3
1.859510050E1,4.243762940E-3
1.860503750E1,3.484757803E-4
1.861497350E1,-6.544130668E-4
1.862491050E1,-1.267822534E-3
1.863484650E1,-8.486319892E-3
1.864478350E1,-1.021599937E-3
1.865471950E1,-3.296038918E-3
1.866465550E1,5.617529713E-4
1.867459250E1,-1.052243002E-3
1.868452850E1,-4.637371916E-3
1.869446550E1,7.379642967E-3
1.870440150E1,-4.879556280E-3
1.871433850E1,2.881105877E-3
1.872427450E1,-6.368385293E-3
1.873421050E1,-4.438054953E-3
1.874414750E1,6.485749874E-3
1.875408350E1,9.335920326E-3
1.876402050E1,8.060825318E-3
1.877395650E1,-4.755430855E-4
1.878389350E1,-4.092246965E-3
1.879382950E1,-5.384554714E-4
1.880376650E1,1.616353132E-3
1.881370250E1,3.477046788E-3
1.882363850E1,7.656234540E-3
1.883357550E1,-2.097871341E-4
1.884351150E1,-6.810599249E-3
1.885344850E1,-3.522728160E-3
1.886338450E1,1.105416119E-3
1.887332150E1,3.670333810E-3
1.888325750E1,-1.037297884E-2
1.889319350E1,-5.293977689E-3
1.890313050E1,-4.302326459E-3
1.891306650E1,1.353813149E-4
1.892300350E1,-3.132992964E-3
1.893293950E1,9.921445884E-4
1.894287650E1,3.155358564E-3
1.895281250E1,2.686338779E-3
1.896274950E1,-1.505621485E-3
1.897268550E1,-4.357436467E-3
1.898262150E1,6.666556746E-4
1.899255850E1,-4.896714203E-3
1.900249450E1,-6.289594062E-4
1.901243150E1,2.496907264E-3
1.902236750E1,5.967101846E-3
1.903230450E1,4.561467748E-3
1.904224050E1,-5.905157905E-3
1.905217650E1,-7.681414112E-4
1.906211350E1,3.194407001E-4
1.907204950E1,6.078893300E-3
1.908198650E1,9.877829310E-3
1.909192250E1,6.831155866E-3
1.910185950E1,9.561714213E-3
1.911179550E1,7.639204524E-4
1.912173250E1,9.541011415E-3
1.913166850E1,7.419933937E-4
1.914160450E1,2.467342280E-3
1.915154150E1,9.086061493E-3
1.916147750E1,-5.621421766E-3
1.917141450E1,1.090140268E-4
1.918135050E1,1.745741051E-3
1.919128750E1,-2.291925810E-4
1.920122350E1,1.259252708E-3
1.921115950E1,-2.442327160E-3
1.922109650E1,3.986101728E-3
1.923103250E1,-2.867840007E-3
1.924096950E1,-2.566397768E-3
1.925090550E1,-9.712407924E-4
1.926084250E1,-1.846459340E-3
1.927077850E1,9.796607830E-3
1.928071450E1,7.668276150E-3
1.929065150E1,5.311464518E-4
1.930058750E1,-2.273251265E-3
1.931052450E1,-7.337561287E-3
1.932046050E1,-5.506560523E-3
1.933039750E1,1.353904512E-3
1.934033350E1,-4.667539895E-4
1.935027050E1,9.446067251E-3
1.936020650E1,1.963312291E-3
1.937014250E1,-4.899089634E-3
1.938007950E1,6.197372507E-3
1.939001550E1,5.815348327E-3
1.939995250E1,-5.108474772E-3
1.940988850E1,1.100555621E-4
1.941982550E1,1.973088104E-3
1.942976150E1,1.901715528E-3
1.943969750E1,3.532704972E-3
1.944963450E1,9.888007119E-4
1.945957050E1,1.966692712E-3
1.946950712E1,5.855072848E-3
1.947944312E1,2.643599287E-3
1.948938012E1,5.041578971E-4
1.949931612E1,3.763816170E-3
1.950925212E1,-2.430596184E-3
1.951918912E1,8.760006130E-3
1.952912512E1,3.429848794E-3
1.953906212E1,2.037919108E-3
1.954899812E1,6.440507043E-3
1.955893513E1,9.002153948E-4
1.956887112E1,5.999955889E-3
1.957880812E1,4.695149716E-3
1.958874412E1,2.326972559E-3
1.959868012E1,2.812200096E-3
1.960861712E1,1.123812921E-2
1.961855312E1,-6.668658089E-3
1.962849012E1,-7.885920480E-3
1.963842612E1,-8.478462696E-5
1.964836312E1,2.053304594E-3
1.965829912E1,1.024492482E-2
1.966823512E1,8.066416718E-4
1.967817212E1,9.767042845E-4
1.968810813E1,-7.260999307E-3
1.969804512E1,-9.928389452E-4
1.970798112E1,-3.528940827E-3
1.971791812E1,1.694778912E-4
1.972785412E1,-9.650281258E-4
1.973779012E1,-6.581881754E-3
1.974772712E1,-7.594217509E-3
1.975766312E1,3.206466883E-3
1.976760012E1,-5.631051399E-4
1.977753612E1,-3.094821610E-3
1.978747312E1,2.778103519E-3
1.979740912E1,4.638340361E-3
1.980734513E1,1.036020633E-2
1.981728213E1,7.691372652E-3
1.982721812E1,5.377209149E-3
1.983715512E1,5.007957481E-4
1.984709112E1,1.240468528E-3
1.985702812E1,-2.476332374E-3
1.986696412E1,-5.891069770E-5
1.987690112E1,2.112288382E-3
1.988683712E1,-1.200945005E-3
1.989677312E1,7.642073315E-3
1.990671012E1,-3.800580539E-3
1.991664612E1,8.348362148E-4
1.992658312E1,3.832685407E-3
1.993651912E1,5.801717006E-4
1.994645613E1,6.746590510E-4
1.995639212E1,3.307751622E-3
1.996632812E1,1.536045279E-3
1.997626512E1,3.903052993E-3
1.998620112E1,2.124932986E-3
1.999613812E1,8.103217632E-3
2.000607412E1,1.402582582E-3
2.001601112E1,1.146931350E-3
2.002594712E1,8.100458477E-3
2.003588312E1,1.863946170E-3
2.004582012E1,3.834238574E-3
2.005575612E1,3.982977122E-3
2.006569312E1,5.529401209E-3
2.007562912E1,6.395264212E-3
2.008556612E1,-2.575826403E-3
2.009550212E1,-1.397301815E-4
2.010543812E1,-7.259263415E-3
2.011537512E1,-5.409167837E-3
2.012531112E1,4.022062104E-3
2.013524812E1,-2.118501049E-3
2.014518412E1,4.970425665E-3
2.015512112E1,7.927161623E-3
2.016505712E1,3.102404717E-3
2.017499312E1,1.850844752E-3
2.018493012E1,2.840010915E-3
2.019486613E1,7.846232504E-4
2.020480313E1,1.203996520E-3
2.021473912E1,-7.908176444E-3
2.022467612E1,-6.622574721E-3
2.023461212E1,-6.197865866E-4
2.024454912E1,1.992256008E-3
2.025448512E1,1.217956748E-3
2.026442112E1,1.384638939E-3
2.027435812E1,-1.727888770E-3
2.028429412E1,3.083766717E-3
2.029423112E1,6.021736767E-3
2.030416712E1,-7.911940590E-3
2.031410412E1,-3.489892390E-3
2.032404013E1,2.288454026E-3
2.033397612E1,-3.326590620E-3
2.034391312E1,-3.315937724E-3
2.035384912E1,-1.634241957E-3
2.036378612E1,-1.793633401E-3
2.037372212E1,5.166142937E-3
2.038365912E1,-1.332616992E-3
2.039359512E1,-4.622297063E-3
2.040353112E1,3.913395256E-3
2.041346812E1,2.233545016E-3
2.042340412E1,-2.754458841E-3
2.043334112E1,8.631641474E-3
2.044327712E1,-2.539116852E-3
2.045321413E1,-6.715874355E-3
2.046315012E1,5.456786100E-3
2.047308575E1,-2.917943336E-3
2.048302275E1,4.803158753E-3
2.049295875E1,7.800094318E-3
2.050289575E1,-2.185579576E-3
2.051283175E1,-4.436410423E-3
2.052276875E1,2.303949147E-3
2.053270475E1,2.982153073E-3
2.054264075E1,3.981716316E-3
2.055257775E1,-9.856687970E-3
2.056251375E1,6.479592025E-3
2.057245075E1,6.170164682E-3
2.058238675E1,1.767229568E-3
2.059232375E1,4.049068931E-3
2.060225975E1,-5.096487980E-3
2.061219575E1,-2.677348685E-3
2.062213275E1,3.386634216E-4
2.063206875E1,-3.161479868E-3
2.064200575E1,3.233729526E-3
2.065194175E1,3.881144207E-3
2.066187875E1,5.391151104E-3
2.067181475E1,-5.264960881E-3
2.068175075E1,-7.313386705E-3
2.069168775E1,-2.930825483E-3
2.070162375E1,2.894536201E-3
2.071156075E1,4.238189813E-3
2.072149675E1,1.930695791E-3
2.073143375E1,3.515346050E-3
2.074136975E1,-4.105951376E-3
2.075130575E1,2.450385354E-3
2.076124275E1,-3.924358785E-3
2.077117875E1,-2.255070079E-3
2.078111575E1,2.001501918E-3
2.079105175E1,-2.276028693E-3
2.080098875E1,-5.768789873E-3
2.081092475E1,4.103228766E-3
2.082086075E1,-2.646486349E-3
2.083079775E1,-3.125903215E-3
2.084073375E1,1.868605670E-3
2.085067075E1,1.918836907E-3
2.086060675E1,-2.536083609E-3
2.087054375E1,6.022193581E-3
2.088047975E1,-6.495653596E-3
2.089041575E1,-2.896509636E-3
2.090035275E1,-6.578300335E-4
2.091028875E1,4.603458066E-3
2.092022575E1,-4.241424054E-4
2.093016175E1,-2.226546630E-3
2.094009875E1,-2.841417901E-3
2.095003475E1,-5.829308555E-4
2.095997075E1,-7.183724698E-3
2.096990775E1,-1.908586007E-3
2.097984375E1,-7.351009883E-3
2.098978075E1,-3.084497619E-3
2.099971675E1,1.166866701E-3
2.100965375E1,1.955162734E-4
2.101958975E1,3.925710954E-3
2.102952575E1,-3.460729402E-3
2.103946275E1,8.488695323E-3
2.104939875E1,8.568308819E-3
2.105933575E1,1.360592265E-3
2.106927175E1,-3.018880896E-3
2.107920875E1,1.595924422E-4
2.108914475E1,-3.250777815E-3
2.109908175E1,-9.103420414E-3
2.110901775E1,-8.588664439E-3
2.111895375E1,-9.092420340E-5
2.112889075E1,4.180576466E-3
2.113882675E1,-4.142935015E-4
2.114876375E1,-3.864552733E-3
2.115869975E1,-5.051427875E-3
2.116863575E1,-1.004917100E-3
2.117857275E1,4.755558763E-3
2.118850875E1,6.846705806E-3
2.119844575E1,-2.387564331E-3
2.120838175E1,-5.736465733E-3
2.121831875E1,1.234968491E-3
2.122825475E1,1.159155685E-3
2.123819175E1,-8.092345465E-3
2.124812775E1,2.177064568E-3
2.125806375E1,-7.177110035E-3
2.126800075E1,-6.483721621E-3
2.127793675E1,-1.177282054E-3
2.128787375E1,-4.862124268E-3
2.129780975E1,4.669696055E-3
2.130774675E1,-3.926770762E-5
2.131768275E1,-6.053147279E-4
2.132761875E1,4.524612017E-3
2.133755575E1,-3.333040830E-3
2.134749175E1,4.907312281E-3
2.135742875E1,-2.105417904E-3
2.136736475E1,5.243929178E-3
2.137730075E1,-1.499299183E-3
2.138723775E1,5.690437183E-3
2.139717375E1,2.592235152E-3
2.140711075E1,3.866727166E-3
2.141704675E1,2.364413012E-3
2.142698375E1,-6.722489018E-3
2.143691975E1,-1.058409987E-2
2.144685575E1,-3.614364993E-3
2.145679275E1,7.333504781E-4
2.146672875E1,-1.012969812E-2
2.147666625E1,-1.927260552E-3
2.148660225E1,-4.609780367E-3
2.149653925E1,-1.957574710E-3
2.150647525E1,-2.455739211E-3
2.151641125E1,2.932396922E-3
2.152634825E1,1.230254173E-3
2.153628425E1,-1.845673621E-3
2.154622125E1,5.172885507E-3
2.155615725E1,-4.380551241E-3
2.156609425E1,-1.172037832E-2
2.157603025E1,-5.562730338E-3
2.158596625E1,-5.346365087E-3
2.159590325E1,-9.124305937E-3
2.160583925E1,1.341424361E-3
2.161577625E1,-4.386873543E-4
2.162571225E1,-2.466958556E-3
2.163564925E1,3.629037850E-3
2.164558525E1,-1.314435806E-3
2.165552125E1,-4.258417524E-4
2.166545825E1,-5.995479114E-3
2.167539425E1,-4.235759564E-3
2.168533125E1,1.177208964E-3
2.169526725E1,6.198615041E-3
2.170520425E1,-7.267906331E-4
2.171514025E1,-2.619351614E-3
2.172507625E1,5.959865917E-3
2.173501325E1,3.833653852E-3
2.174494925E1,1.876133960E-3
2.175488625E1,4.660084695E-3
2.176482225E1,-1.951654404E-3
2.177475925E1,-1.247631367E-3
2.178469525E1,1.989807487E-3
2.179463125E1,1.937584542E-3
2.180456825E1,-9.325139523E-3
2.181450425E1,-4.646179285E-3
2.182444125E1,6.988957599E-3
2.183437725E1,4.910308979E-3
2.184431425E1,-4.333225340E-3
2.185425025E1,-1.693518106E-3
2.186418625E1,-5.356104355E-3
2.187412325E1,1.588542312E-3
2.188405925E1,-4.972143285E-4
2.189399625E1,-2.617378179E-3
2.190393225E1,-7.322175801E-4
2.191386925E1,1.148941331E-3
2.192380525E1,-2.178361919E-3
2.193374125E1,-8.367182873E-4
2.194367825E1,-3.475292623E-3
2.195361425E1,-8.218225054E-3
2.196355125E1,4.081173800E-3
2.197348725E1,8.227032423E-4
2.198342425E1,2.122429647E-3
2.199336025E1,-4.246284552E-3
2.200329625E1,5.522896182E-3
2.201323325E1,3.999166600E-3
2.202316925E1,-5.415453594E-3
2.203310625E1,-5.382910185E-3
2.204304225E1,-1.049929697E-2
2.205297925E1,-5.768278241E-4
2.206291525E1,-6.179026868E-3
2.207285125E1,-2.998306006E-3
2.208278825E1,1.120801605E-3
2.209272425E1,7.172286082E-3
2.210266125E1,7.675018720E-4
2.211259725E1,-1.260842420E-3
2.212253325E1,-7.683588546E-3
2.213247025E1,-2.756834272E-3
2.214240625E1,-2.582952697E-3
2.215234325E1,-1.492245980E-3
2.216227925E1,5.945521966E-4
2.217221625E1,-1.089080460E-3
2.218215225E1,2.009377386E-3
2.219208825E1,1.714677718E-3
2.220202525E1,-3.111230358E-3
2.221196125E1,-2.160016280E-3
2.222189825E1,-2.807650231E-3
2.223183425E1,2.226363905E-3
2.224177125E1,-1.270673051E-4
2.225170725E1,-9.168890957E-3
2.226164325E1,-1.581068840E-3
2.227158025E1,-4.435642976E-3
2.228151625E1,-3.861281946E-3
2.229145325E1,5.584566034E-3
2.230138925E1,5.741636865E-3
2.231132625E1,-1.490765903E-3
2.232126225E1,-4.246741366E-3
2.233119825E1,1.770902351E-3
2.234113525E1,-2.674004808E-3
2.235107125E1,-1.761364080E-3
2.236100825E1,1.325910967E-3
2.237094425E1,-8.732451126E-5
2.238088125E1,-1.868276764E-3
2.239081725E1,-4.212078340E-3
2.240075325E1,-1.381576460E-2
2.241069025E1,-1.325861631E-2
2.242062625E1,1.073713247E-3
2.243056325E1,-4.371597692E-3
2.244049925E1,-2.720544990E-3
2.245043625E1,-1.223255787E-3
2.246037225E1,-6.217965670E-3
2.247030825E1,-4.218510278E-3
2.248024562E1,-1.697154343E-4
2.249018163E1,-4.904443491E-3
2.250011863E1,-2.267458867E-3
2.251005462E1,-1.061322631E-2
2.251999162E1,-2.694707606E-3
2.252992762E1,-7.354700938E-5
2.253986362E1,-5.754829645E-3
2.254980062E1,-1.210815836E-2
2.255973662E1,-8.507771865E-3
2.256967362E1,-5.509794764E-3
2.257960962E1,-1.670494694E-3
2.258954562E1,-1.247439506E-2
2.259948262E1,-2.081188504E-3
2.260941862E1,4.252022132E-5
2.261935563E1,-6.099011377E-4
2.262929162E1,-1.434586952E-2
2.263922862E1,-1.886110771E-3
2.264916462E1,-1.086924300E-3
2.265910062E1,-7.765559200E-3
2.266903762E1,-5.358242244E-3
2.267897362E1,-4.791848045E-3
2.268891062E1,2.916591167E-3
2.269884662E1,2.159541193E-3
2.270878362E1,-5.022411067E-3
2.271871962E1,-8.294640854E-4
2.272865562E1,-6.729633585E-3
2.273859262E1,-3.208312411E-3
2.274852863E1,-3.205863889E-3
2.275846562E1,-1.062159514E-2
2.276840162E1,-5.237022154E-3
2.277833862E1,3.789598737E-3
2.278827462E1,-8.246437870E-3
2.279821062E1,-1.499153003E-3
2.280814762E1,6.004359573E-5
2.281808362E1,-3.768110219E-3
2.282802062E1,-3.655021414E-3
2.283795662E1,5.247876048E-5
2.284789262E1,-2.338356357E-3
2.285782962E1,-2.144667339E-3
2.286776563E1,-8.262115717E-3
2.287770263E1,-6.659485269E-3
2.288763862E1,-9.373269416E-4
2.289757562E1,1.920846887E-3
2.290751162E1,-5.510507394E-3
2.291744762E1,5.815238692E-4
2.292738462E1,-3.453438655E-3
2.293732062E1,-5.659337305E-3
2.294725762E1,2.587813195E-3
2.295719362E1,-1.882072538E-3
2.296713062E1,-9.303651005E-4
2.297706662E1,-4.513703305E-3
2.298700262E1,-3.976782728E-3
2.299693963E1,6.691407412E-3
2.300687562E1,-4.293902814E-3
2.301681262E1,9.790157620E-3
2.302674862E1,2.173830327E-3
2.303668462E1,-9.798398539E-3
2.304662162E1,-7.415000349E-5
2.305655762E1,3.829012625E-4
2.306649462E1,-1.657685637E-3
2.307643062E1,-1.299561951E-3
2.308636762E1,-5.877273995E-3
2.309630362E1,-1.286460534E-3
2.310623962E1,1.292271204E-3
2.311617662E1,1.432037931E-3
2.312611263E1,5.826257039E-3
2.313604962E1,1.093173511E-3
2.314598562E1,-1.830744948E-3
2.315592262E1,1.930056252E-3
2.316585862E1,6.526936200E-3
2.317579462E1,3.221231103E-3
2.318573162E1,-4.140395131E-3
2.319566762E1,-6.137986723E-3
2.320560462E1,-5.690473728E-3
2.321554062E1,-1.575495712E-3
2.322547662E1,-7.502580676E-3
2.323541362E1,2.261410654E-4
2.324534963E1,1.187258866E-3
2.325528663E1,-4.748194925E-3
2.326522262E1,-4.575446248E-4
2.327515962E1,1.648348365E-3
2.328509562E1,2.000423837E-3
2.329503162E1,-5.866767280E-4
2.330496862E1,-4.523424301E-3
2.331490462E1,-1.089080460E-3
2.332484162E1,-4.555766713E-3
2.333477762E1,-7.714889422E-3
2.334471462E1,-1.395967919E-3
2.335465062E1,2.808582131E-3
2.336458662E1,1.562668383E-4
2.337452362E1,-1.853640452E-3
2.338445962E1,-4.425282441E-3
2.339439662E1,-4.777485821E-3
2.340433262E1,-2.434013151E-3
2.341426962E1,-2.894718926E-3
2.342420562E1,-4.584582523E-4
2.343414162E1,-9.835217725E-3
2.344407862E1,-4.221360795E-3
2.345401462E1,3.480555117E-4
2.346395162E1,-5.750809684E-3
2.347388675E1,1.038081776E-3
2.348382275E1,-6.701457314E-4
2.349375975E1,1.295980532E-3
2.350369575E1,6.662902236E-4
2.351363275E1,-6.260924432E-3
2.352356875E1,2.668760587E-3
2.353350575E1,-1.582914367E-3
2.354344175E1,-9.800481610E-4
2.355337775E1,-3.606946338E-3
2.356331475E1,-6.125141121E-4
2.357325075E1,9.845139720E-3
2.358318775E1,-2.781794574E-3
2.359312375E1,-2.820203472E-3
2.360305975E1,-7.945269719E-3
2.361299675E1,-5.354441553E-3
2.362293275E1,-2.665855251E-3
2.363286975E1,3.993282840E-4
2.364280575E1,2.716324031E-3
2.365274275E1,-7.270994391E-3
2.366267875E1,-1.057487223E-3
2.367261475E1,3.411375247E-3
2.368255175E1,-2.229598146E-3
2.369248775E1,4.772314690E-3
2.370242475E1,3.995585181E-3
2.371236075E1,-5.115180798E-3
2.372229775E1,5.924873985E-4
2.373223375E1,4.495777935E-4
2.374216975E1,-4.830439668E-3
2.375210675E1,4.411230851E-3
2.376204275E1,-3.438692708E-3
2.377197975E1,-3.047788069E-3
2.378191575E1,-5.162177794E-4
2.379185175E1,-1.970091406E-3
2.380178875E1,-7.903389037E-3
2.381172475E1,-1.025612589E-2
2.382166175E1,-1.257955357E-3
2.383159775E1,-3.604041003E-3
2.384153475E1,-8.224419449E-3
2.385147075E1,-3.653248977E-3
2.386140675E1,-3.952772599E-3
2.387134375E1,-2.679906841E-3
2.388127975E1,2.638702244E-3
2.389121675E1,6.494612060E-4
2.390115275E1,-4.491063617E-3
2.391108875E1,-5.564722046E-3
2.392102575E1,-4.974591807E-3
2.393096175E1,-2.302469071E-3
2.394089875E1,5.389999934E-3
2.395083475E1,-1.880574189E-3
2.396077175E1,-5.566695482E-3
2.397070775E1,-2.365527637E-3
2.398064375E1,1.082611978E-3
2.399058075E1,-5.742075406E-3
2.400051675E1,-1.730154566E-3
2.401045375E1,5.567554291E-3
2.402038975E1,-3.147611003E-3
2.403032675E1,-1.225302313E-3
2.404026275E1,6.954020485E-3
2.405019875E1,-2.814922705E-3
2.406013575E1,-1.278000344E-3
2.407007175E1,-5.308942907E-3
2.408000875E1,-3.688131273E-4
2.408994475E1,-2.475363929E-3
2.409988075E1,-8.462529033E-3
2.410981775E1,-8.327366989E-3
2.411975375E1,-1.190818358E-2
2.412969075E1,-6.555313468E-3
2.413962675E1,-7.622338962E-3
2.414956375E1,-4.383986481E-3
2.415949975E1,6.181767751E-3
2.416943575E1,1.149354290E-2
2.417937275E1,3.096064143E-3
2.418930875E1,-5.000904277E-3
2.419924575E1,-7.250309866E-3
2.420918175E1,-3.854740374E-3
2.421911775E1,7.034474518E-3
2.422905475E1,-3.829177078E-3
2.423899075E1,-6.642309073E-3
2.424892775E1,-5.326155648E-3
2.425886375E1,-3.405692484E-3
2.426880075E1,-1.111605031E-2
2.427873675E1,-2.136481237E-3
2.428867275E1,2.469918709E-3
2.429860975E1,-4.457442127E-3
2.430854575E1,-6.267191917E-3
2.431848275E1,-2.487350721E-3
2.432841875E1,-2.315515671E-3
2.433835575E1,-1.151062774E-2
2.434829175E1,5.831501260E-4
2.435822775E1,-8.114491794E-3
2.436816475E1,-7.201960701E-3
2.437810075E1,-3.654217422E-3
2.438803775E1,-5.029409453E-3
2.439797375E1,-7.642986942E-3
2.440790975E1,-7.369958516E-3
2.441784675E1,-1.526470464E-3
2.442778275E1,3.257191479E-3
2.443771975E1,-1.852215193E-3
2.444765575E1,-6.308853328E-3
2.445759275E1,-6.505575590E-3
2.446752875E1,-1.634282157E-2
2.447746575E1,-3.504912425E-3
2.448740275E1,-5.456091743E-3
2.449733875E1,-6.073283628E-3
2.450727575E1,2.177777197E-3
2.451721175E1,-8.259119019E-3
2.452714775E1,1.132203676E-3
2.453708475E1,-7.048087567E-4
2.454702075E1,-5.025444310E-3
2.455695775E1,-2.976817489E-3
2.456689375E1,-8.385455422E-4
2.457683075E1,-4.036479145E-3
2.458676675E1,1.881487817E-3
2.459670275E1,1.947981622E-3
2.460663975E1,5.499763135E-3
2.461657575E1,-7.116609626E-4
2.462651275E1,4.069826547E-3
2.463644875E1,-2.929455042E-4
2.464638475E1,-3.197842240E-3
2.465632175E1,5.082144029E-4
2.466625775E1,-3.187901974E-3
2.467619475E1,-1.098143645E-2
2.468613075E1,-1.187191257E-2
2.469606775E1,-7.709827926E-3
2.470600375E1,1.339103747E-3
2.471593975E1,-4.483188149E-3
2.472587675E1,1.539590154E-3
2.473581275E1,6.364694238E-4
2.474574975E1,-3.976855818E-3
2.475568575E1,-3.257502113E-3
2.476562175E1,-7.291660644E-4
2.477555875E1,-5.842172429E-3
2.478549475E1,-4.986816142E-3
2.479543175E1,3.668415193E-3
2.480536775E1,1.507814191E-3
2.481530475E1,-6.504296511E-3
2.482524075E1,-5.529072303E-3
2.483517675E1,-7.942711562E-4
2.484511375E1,-5.586850103E-3
2.485504975E1,-3.123253696E-3
2.486498675E1,-2.395933159E-3
2.487492275E1,-3.802590519E-3
2.488485875E1,3.496671505E-3
2.489479575E1,-7.033524346E-3
2.490473175E1,-4.568173774E-3
2.491466875E1,-5.838627554E-3
2.492460475E1,-5.042748414E-3
2.493454175E1,-5.597192366E-3
2.494447775E1,1.725202706E-3
2.495441375E1,-3.775419239E-3
2.496435075E1,-6.112277247E-3
2.497428675E1,-6.998587232E-3
2.498422375E1,-3.087275047E-3
2.499415975E1,4.894119501E-3
2.500409575E1,-5.840637535E-3
2.501403275E1,-4.519477431E-3
2.502396875E1,-7.464153506E-3
2.503390575E1,-1.042030474E-2
2.504384175E1,-2.883938123E-3
2.505377875E1,3.071049023E-3
2.506371475E1,4.239395801E-3
2.507365075E1,-2.306525577E-3
2.508358775E1,-7.387025077E-3
2.509352375E1,-6.477819588E-3
2.510346075E1,-6.491341274E-3
2.511339675E1,-4.794260021E-3
2.512333275E1,-5.174420401E-3
2.513326975E1,-4.149421770E-3
2.514320575E1,-2.769223060E-3
2.515314275E1,3.719560057E-4
2.516307875E1,-6.897046678E-3
2.517301475E1,-2.249917220E-3
2.518295175E1,-9.794287216E-3
2.519288775E1,-1.414346449E-2
2.520282475E1,3.505003788E-3
2.521276075E1,-3.736425620E-3
2.522269775E1,-6.718286332E-3
2.523263375E1,-1.985824071E-3
2.524256975E1,5.704872496E-4
2.525250675E1,-2.333221771E-3
2.526244275E1,-1.202644352E-3
2.527237975E1,-6.699684877E-3
2.528231575E1,-5.652430281E-3
2.529225175E1,3.414682578E-3
2.530218875E1,-9.682587124E-3
2.531212475E1,-1.837999150E-3
2.532206175E1,4.114429839E-3
2.533199775E1,-9.173349459E-3
2.534193475E1,-2.631228771E-3
2.535187075E1,-6.736558881E-3
2.536180675E1,1.407662351E-3
2.537174375E1,3.052009027E-3
2.538167975E1,-5.457334276E-3
2.539161675E1,-6.406355649E-3
2.540155275E1,1.419685688E-3
2.541148875E1,5.100909937E-3
2.542142575E1,-1.031812465E-2
2.543136175E1,-1.343174871E-2
2.544129875E1,-4.061804898E-3
2.545123475E1,-4.407411888E-3
2.546117175E1,-7.803164106E-3
2.547110775E1,-1.078688862E-2
2.548104325E1,-5.596699007E-4
2.549098025E1,7.329484820E-4
2.550091625E1,-5.083094202E-3
2.551085325E1,-7.286124062E-3
2.552078925E1,5.980970711E-4
2.553072525E1,1.536027007E-3
2.554066225E1,8.963050693E-4
2.555059825E1,3.181835487E-3
2.556053525E1,1.923587769E-3
2.557047125E1,5.685777683E-3
2.558040825E1,-1.380925957E-2
2.559034425E1,-1.289848264E-2
2.560028025E1,-7.501265053E-3
2.561021725E1,-7.497025821E-3
2.562015325E1,-7.463788055E-4
2.563009025E1,-6.784889773E-3
2.564002625E1,2.421533000E-3
2.564996225E1,3.465242721E-3
2.565989925E1,-3.081555739E-3
2.566983525E1,-4.150792211E-3
2.567977225E1,-1.220765239E-2
2.568970825E1,-1.144153923E-3
2.569964425E1,-3.343620636E-3
2.570958125E1,-3.769736476E-3
2.571951725E1,-7.946841158E-3
2.572945425E1,-2.674315441E-3
2.573939025E1,-1.223475058E-3
2.574932725E1,-7.301034462E-3
2.575926325E1,-6.431498677E-3
2.576919925E1,1.876956224E-3
2.577913625E1,-2.111868113E-3
2.578907225E1,-3.914582971E-3
2.579900925E1,-7.220817972E-3
2.580894525E1,-4.421609659E-3
2.581888125E1,-2.495884001E-3
2.582881825E1,-4.783077221E-3
2.583875425E1,-3.421479966E-3
2.584869125E1,5.569911450E-3
2.585862725E1,-6.396031659E-3
2.586856325E1,-1.431694407E-2
2.587850025E1,-6.603516452E-3
2.588843625E1,-1.896325126E-3
2.589837325E1,-1.261242589E-2
2.590830925E1,-4.761204980E-3
2.591824625E1,-2.016083412E-3
2.592818225E1,5.281479266E-3
2.593811825E1,1.180735566E-3
2.594805525E1,-8.258643933E-4
2.595799125E1,-5.506871156E-3
2.596792825E1,-1.180404833E-2
2.597786425E1,-6.716221534E-3
2.598780025E1,4.140815400E-3
2.599773725E1,-3.312995844E-4
2.600767325E1,-8.683243152E-3
2.601761025E1,-2.726574931E-3
2.602754625E1,-8.884844184E-4
2.603748225E1,-6.081889998E-3
2.604741925E1,2.726702839E-3
2.605735525E1,2.148029488E-3
2.606729225E1,-3.898210768E-3
2.607722825E1,2.323427685E-3
2.608716425E1,-2.559088748E-3
2.609710125E1,-6.836034637E-3
2.610703725E1,-3.957450371E-3
2.611697425E1,-1.338312546E-2
2.612691025E1,-9.182303008E-3
2.613684725E1,-7.204116862E-3
2.614678325E1,-6.586449891E-3
2.615671925E1,-2.486638092E-3
2.616665625E1,-1.758367382E-4
2.617659225E1,-1.677694079E-3
2.618652925E1,-4.594851695E-3
2.619646525E1,-5.748598706E-3
2.620640125E1,-5.043333136E-3
2.621633825E1,2.179293819E-3
2.622627425E1,-3.359371573E-3
2.623621125E1,-2.172003072E-3
2.624614725E1,-1.204800513E-3
2.625608325E1,-7.548846770E-3
2.626602025E1,-2.990759443E-3
2.627595625E1,-1.003128218E-2
2.628589325E1,6.684098393E-4
2.629582925E1,-2.447279021E-3
2.630576525E1,-1.059325442E-2
2.631570225E1,-2.231078222E-4
2.632563825E1,-4.821248576E-3
2.633557525E1,-5.117574502E-3
2.634551125E1,-1.119741797E-3
2.635544825E1,3.656848669E-3
2.636538425E1,-4.561869744E-3
2.637532025E1,-7.602440156E-3
2.638525725E1,-1.459651407E-2
2.639519325E1,-3.741852567E-3
2.640513025E1,1.315258071E-3
2.641506625E1,-4.919335619E-4
2.642500225E1,-3.381700628E-4
2.643493925E1,-2.282953989E-3
2.644487525E1,4.959955495E-3
2.645481225E1,2.805475798E-3
2.646474825E1,-5.162616335E-3
2.647468425E1,-3.911568001E-3
2.648462100E1,1.022495292E-3
2.649455700E1,-4.176702686E-3
2.650449400E1,-3.941553254E-3
2.651443000E1,-3.643071167E-3
2.652436700E1,-1.285556043E-2
2.653430300E1,7.084559575E-3
2.654423900E1,-5.663064905E-3
2.655417600E1,-4.171933550E-3
2.656411200E1,2.184611131E-3
2.657404900E1,2.895468101E-4
2.658398500E1,4.828082509E-3
2.659392100E1,-1.012354027E-3
2.660385800E1,3.521942440E-3
2.661379400E1,6.409480255E-3
2.662373100E1,-5.403612982E-3
2.663366700E1,-3.612738736E-3
2.664360300E1,-7.292720452E-3
2.665354000E1,-6.187212970E-3
2.666347600E1,-2.361562494E-3
2.667341300E1,-4.993503895E-3
2.668334900E1,-6.230445821E-3
2.669328500E1,5.073994473E-3
2.670322200E1,-4.766357839E-3
2.671315800E1,-1.093586471E-2
2.672309500E1,-9.640066903E-3
2.673303100E1,-9.639135003E-4
2.674296800E1,-3.651750628E-3
2.675290400E1,-1.812125221E-3
2.676284000E1,5.939857475E-4
2.677277700E1,-2.357999347E-3
2.678271300E1,-6.722580381E-3
2.679265000E1,-2.190641072E-3
2.680258600E1,-5.080170594E-3
2.681252200E1,-8.382878993E-3
2.682245900E1,-2.776093539E-3
2.683239500E1,8.097480051E-3
2.684233200E1,1.331465822E-3
2.685226800E1,-9.542107768E-4
2.686220400E1,-4.485399127E-3
2.687214100E1,2.001319192E-3
2.688207700E1,1.043495933E-2
2.689201400E1,1.700827125E-3
2.690195000E1,1.115319841E-3
2.691188600E1,-6.447761245E-3
2.692182300E1,7.516778447E-4
2.693175900E1,-6.490646917E-3
2.694169600E1,7.423953898E-4
2.695163200E1,-6.373684332E-3
2.696156900E1,-5.836306941E-3
2.697150500E1,-1.885233689E-3
2.698144100E1,-7.894599941E-3
2.699137800E1,-1.183911335E-2
2.700131400E1,8.165453933E-4
2.701125100E1,-2.550445832E-3
2.702118700E1,-5.693452153E-3
2.703112300E1,-4.702678006E-3
2.704106000E1,-4.291143660E-3
2.705099600E1,-5.416476857E-3
2.706093300E1,-4.266822897E-4
2.707086900E1,-8.218170237E-3
2.708080500E1,-5.188581627E-3
2.709074200E1,-6.865946800E-3
2.710067800E1,-8.925171699E-3
2.711061500E1,-2.354618926E-3
2.712055100E1,-3.543412685E-4
2.713048700E1,1.015953720E-4
2.714042400E1,-6.365644410E-3
2.715036000E1,-8.604579829E-3
2.716029700E1,6.585426629E-5
2.717023300E1,2.735656388E-3
2.718017000E1,-4.689083230E-3
2.719010600E1,-7.977612130E-4
2.720004200E1,-7.279911395E-3
2.720997900E1,-4.760017265E-3
2.721991500E1,-1.430342238E-2
2.722985200E1,-3.838697076E-3
2.723978800E1,-9.117106553E-3
2.724972400E1,-9.067661036E-3
2.725966100E1,-6.345160883E-3
2.726959700E1,-1.332222305E-2
2.727953400E1,-1.367555933E-2
2.728947000E1,-1.941768955E-3
2.729940600E1,-1.032846691E-2
2.730934300E1,-2.665471528E-3
2.731927900E1,4.716327600E-4
2.732921600E1,-8.519575931E-4
2.733915200E1,-3.296824638E-3
2.734908800E1,-8.655340970E-3
2.735902500E1,-1.289548595E-3
2.736896100E1,-2.819070574E-3
2.737889800E1,-8.420739714E-3
2.738883400E1,-1.268480346E-3
2.739877000E1,-2.489031795E-3
2.740870700E1,-3.890773840E-3
2.741864300E1,-9.832458571E-5
2.742858000E1,8.752660565E-3
2.743851600E1,-1.329145208E-3
2.744845300E1,-6.425121557E-3
2.745838900E1,-3.622551095E-3
2.746832500E1,-1.316189971E-3
2.747826279E1,-8.263924699E-3
2.748819879E1,-2.610672154E-3
2.749813579E1,-9.651669972E-3
2.750807179E1,1.444993168E-3
2.751800779E1,-7.312125899E-3
2.752794479E1,-3.393870145E-3
2.753788079E1,-6.876654513E-3
2.754781779E1,-1.002693331E-2
2.755775379E1,-7.164867427E-3
2.756768979E1,-4.193074889E-3
2.757762679E1,-7.932807840E-3
2.758756279E1,-6.368220840E-3
2.759749979E1,-6.954714842E-3
2.760743579E1,-2.891521230E-3
2.761737179E1,-2.637240440E-3
2.762730879E1,-6.936149932E-3
2.763724479E1,-2.436735760E-3
2.764718179E1,4.135991447E-3
2.765711779E1,-7.526828349E-3
2.766705379E1,1.101834700E-5
2.767699079E1,1.442361921E-3
2.768692679E1,-5.896405354E-3
2.769686379E1,-5.427111480E-3
2.770679979E1,5.041030794E-4
2.771673579E1,-8.391211275E-3
2.772667279E1,-4.573089089E-3
2.773660879E1,-5.057220273E-3
2.774654579E1,-3.288327903E-3
2.775648179E1,-5.170747619E-3
2.776641779E1,-5.846228935E-3
2.777635479E1,-5.564703774E-3
2.778629079E1,-8.056366816E-3
2.779622779E1,-1.990373936E-3
2.780616379E1,-2.215144560E-3
2.781609979E1,1.666091010E-4
2.782603679E1,-2.679979932E-3
2.783597279E1,-8.300451525E-3
2.784590979E1,-2.470119707E-3
2.785584579E1,4.924324024E-3
2.786578279E1,1.919056177E-3
2.787571879E1,-3.803887870E-3
2.788565479E1,9.126407281E-4
2.789559179E1,6.816007923E-3
2.790552779E1,-3.821612243E-3
2.791546479E1,-7.286124062E-3
2.792540079E1,-2.998141553E-3
2.793533679E1,2.538641766E-3
2.794527379E1,6.299826689E-4
2.795520979E1,-3.195722625E-3
2.796514679E1,-1.062420812E-3
2.797508279E1,-5.622079577E-3
2.798501879E1,-1.362090614E-3
2.799495579E1,2.933127824E-3
2.800489179E1,-4.849826843E-3
2.801482879E1,-7.632699497E-3
2.802476479E1,-8.232879639E-3
2.803470079E1,6.932458878E-3
2.804463779E1,1.612022538E-3
2.805457379E1,-3.502792809E-3
2.806451079E1,-6.058811769E-3
2.807444679E1,-1.688657608E-3
2.808438279E1,-4.207674656E-3
2.809431979E1,-1.071335988E-2
2.810425579E1,-9.264237117E-3
2.811419279E1,7.094170935E-3
2.812412879E1,7.201028802E-4
2.813406479E1,-3.826143835E-3
2.814400179E1,-6.327016242E-3
2.815393779E1,-9.711201936E-3
2.816387479E1,7.936864346E-4
2.817381079E1,-2.847612295E-3
2.818374679E1,-2.980380636E-3
2.819368379E1,-4.680129681E-3
2.820361979E1,1.705870349E-3
2.821355679E1,2.194039766E-3
2.822349279E1,-3.322150391E-3
2.823342879E1,-2.458735909E-3
2.824336579E1,8.953548968E-3
2.825330179E1,-8.496004343E-4
2.826323879E1,2.881105877E-3
2.827317479E1,-3.320432771E-3
2.828311079E1,-3.184393644E-3
2.829304779E1,-4.722558539E-3
2.830298379E1,-8.187344447E-3
2.831292079E1,-7.347391918E-4
2.832285679E1,-4.852604270E-3
2.833279279E1,-9.694500826E-4
2.834272979E1,1.762387343E-3
2.835266579E1,-2.242224477E-4
2.836260279E1,-3.246684764E-3
2.837253879E1,-8.193812929E-3
2.838247579E1,-5.660068206E-3
2.839241179E1,-6.358116120E-4
2.840234779E1,-1.293659918E-3
2.841228479E1,-6.113958322E-3
2.842222079E1,-1.021430003E-2
2.843215779E1,-7.441641726E-3
2.844209379E1,9.744750336E-5
2.845202979E1,3.241550177E-4
2.846196679E1,2.560550552E-3
2.847190279E1,-4.732827712E-3
2.848183937E1,-1.801782958E-3
2.849177537E1,-9.723188728E-3
2.850171137E1,-2.875130754E-3
2.851164837E1,-7.128870506E-3
2.852158437E1,4.873836972E-3
2.853152137E1,-5.076278541E-3
2.854145737E1,-2.393301912E-3
2.855139337E1,-2.035123408E-3
2.856133037E1,9.701078944E-4
2.857126637E1,3.559309803E-3
2.858120337E1,-9.581211023E-4
2.859113937E1,5.760201775E-3
2.860107537E1,1.247393824E-3
2.861101237E1,5.266751591E-3
2.862094837E1,1.730702743E-3
2.863088537E1,-4.613581058E-3
2.864082137E1,-4.275520630E-3
2.865075737E1,-3.078961037E-3
2.866069437E1,3.433174398E-3
2.867063037E1,-6.782514341E-3
2.868056737E1,-7.444163337E-3
2.869050337E1,-3.392390069E-3
2.870043937E1,3.796670213E-4
2.871037638E1,-1.447586043E-2
2.872031237E1,-9.107824098E-3
2.873024937E1,-5.606383458E-3
2.874018537E1,-8.376282603E-3
2.875012137E1,-7.057808563E-3
2.876005837E1,-1.597536061E-2
2.876999437E1,-5.455598384E-3
2.877993137E1,-5.044137128E-3
2.878986737E1,-1.601278279E-3
2.879980337E1,2.922876924E-3
2.880974037E1,-5.465191472E-3
2.881967637E1,-6.381870434E-3
2.882961337E1,-6.245813034E-3
2.883954937E1,-4.912245870E-3
2.884948537E1,-7.989324834E-3
2.885942237E1,-7.582797166E-3
2.886935837E1,-3.758590221E-3
2.887929537E1,-3.526492305E-3
2.888923137E1,-5.258985758E-3
2.889916737E1,-8.277007844E-3
2.890910437E1,-1.004710620E-2
2.891904037E1,-3.416619468E-3
2.892897737E1,-2.321362887E-3
2.893891337E1,-1.446973912E-2
2.894884937E1,1.212931797E-3
2.895878638E1,2.326095477E-4
2.896872237E1,-1.231416307E-2
2.897865937E1,-4.210872352E-3
2.898859537E1,-1.919330265E-3
2.899853137E1,-6.745183524E-3
2.900846837E1,4.330849908E-3
2.901840437E1,5.489256419E-4
2.902834137E1,2.224098109E-3
2.903827737E1,8.781787008E-5
2.904821337E1,-3.973329216E-3
2.905815037E1,-7.953200005E-3
2.906808637E1,-6.097677480E-3
2.907802337E1,-3.529251460E-3
2.908795937E1,-1.227096677E-2
2.909789537E1,-7.203568686E-3
2.910783237E1,-3.068655320E-3
2.911776837E1,-5.146554764E-3
2.912770537E1,-4.846464694E-3
2.913764137E1,1.581854559E-3
2.914757737E1,-3.262654971E-3
2.915751437E1,-1.336119840E-2
2.916745037E1,-6.882538274E-4
2.917738737E1,-8.344598003E-3
2.918732337E1,-6.744215079E-4
2.919725937E1,-3.341501020E-4
2.920719638E1,-8.715987559E-3
2.921713237E1,-3.260151632E-3
2.922706937E1,-2.420601100E-3
2.923700537E1,-5.288806558E-4
2.924694137E1,-1.010680262E-2
2.925687837E1,-4.168863762E-3
2.926681437E1,-3.835535925E-3
2.927675137E1,-6.123843770E-3
2.928668737E1,-4.218035191E-3
2.929662337E1,-6.894963607E-4
2.930656037E1,-1.656735465E-3
2.931649637E1,5.229968950E-4
2.932643337E1,-1.784314401E-3
2.933636937E1,-9.928389452E-3
2.934630537E1,-1.764137853E-2
2.935624237E1,-2.477282546E-3
2.936617837E1,3.223898895E-3
2.937611537E1,-8.888626602E-3
2.938605137E1,-3.261101805E-3
2.939598737E1,-3.934701048E-3
2.940592437E1,-7.001547385E-3
2.941586037E1,-6.300740317E-3
2.942579737E1,1.914561130E-3
2.943573337E1,-9.785297122E-3
2.944566937E1,-3.682357147E-3
2.945560638E1,-2.788573690E-3
2.946554237E1,-2.770593502E-3
2.947547937E1,-9.505325127E-3
2.948541500E1,5.984186679E-3
2.949535100E1,-5.541552454E-3
2.950528800E1,-4.468935560E-3
2.951522400E1,2.743714582E-3
2.952516100E1,-3.239960466E-3
2.953509700E1,-9.941308144E-3
2.954503300E1,-4.816296715E-3
2.955497000E1,-1.326150337E-2
2.956490600E1,-5.960213095E-3
2.957484300E1,-7.290180568E-3
2.958477900E1,-3.832539227E-3
2.959471500E1,-2.273580171E-3
2.960465200E1,-1.064089095E-2
2.961458800E1,-4.031965826E-3
2.962452500E1,-7.295369972E-3
2.963446100E1,-7.600357085E-3
2.964439700E1,-1.015599232E-2
2.965433400E1,2.421039641E-3
2.966427000E1,-1.311347745E-3
2.967420700E1,-4.666735902E-3
2.968414300E1,-3.505679872E-3
2.969407900E1,-2.796997335E-3
2.970401600E1,-2.042688243E-3
2.971395200E1,2.075944282E-3
2.972388900E1,-9.335554875E-3
2.973382500E1,-4.904443491E-3
2.974376100E1,-1.023692144E-2
2.975369800E1,-3.571607228E-3
2.976363400E1,-3.436627910E-3
2.977357000E1,-1.912605967E-3
2.978350700E1,3.972086683E-4
2.979344300E1,-5.344629195E-3
2.980338000E1,-5.606895089E-3
2.981331600E1,-2.765477188E-3
2.982325300E1,-5.853665862E-3
2.983318900E1,-1.190293936E-2
2.984312500E1,-3.489161488E-3
2.985306200E1,-7.046625763E-3
2.986299800E1,2.253005281E-3
2.987293400E1,3.634702340E-3
2.988287100E1,-9.903666694E-3
2.989280700E1,-5.368840322E-3
2.990274400E1,-8.480162043E-3
2.991268000E1,-2.686028145E-3
2.992261600E1,-5.424352325E-3
2.993255300E1,-9.428087063E-3
2.994248900E1,-1.047958089E-2
2.995242600E1,-1.306763163E-2
2.996236200E1,-6.366430130E-3
2.997229800E1,-2.104504276E-3
2.998223500E1,-6.797443014E-3
2.999217100E1,-2.236377262E-4
3.000210800E1,-3.089285027E-3
3.001204400E1,-9.811664410E-3
3.002198000E1,2.099698596E-4
3.003191700E1,-1.095435653E-2
3.004185300E1,-9.857528508E-3
3.005179000E1,2.833432797E-3
3.006172600E1,6.967688352E-4
3.007166200E1,-6.628367119E-4
3.008159900E1,-8.440528885E-3
3.009153500E1,-3.727837522E-3
3.010147200E1,4.019577038E-3
3.011140800E1,-5.502595380E-3
3.012134400E1,-7.681962289E-4
3.013128100E1,-2.374810092E-3
3.014121700E1,-8.175321110E-4
3.015115400E1,1.293879189E-4
3.016109000E1,-7.389966957E-3
3.017102600E1,1.597843040E-3
3.018096300E1,-3.380969726E-4
3.019089900E1,-4.186295774E-3
3.020083600E1,-6.012253314E-3
3.021077200E1,-1.428284749E-2
3.022070800E1,-5.011374447E-3
3.023064500E1,-6.465869341E-3
3.024058100E1,-7.565419972E-3
3.025051800E1,-6.235872768E-4
3.026045400E1,-1.297754796E-2
3.027039000E1,-3.869815227E-3
3.028032700E1,-6.808899902E-3
3.029026300E1,3.123984598E-3
3.030020000E1,1.806278005E-3
3.031013600E1,3.904167619E-3
3.032007200E1,-4.840580933E-3
3.033000900E1,-8.115204424E-3
3.033994500E1,-6.771806628E-3
3.034988100E1,-2.741722874E-3
3.035981800E1,-3.970058430E-3
3.036975400E1,-7.495892923E-3
3.037969100E1,2.686759047E-3
3.038962700E1,1.117092278E-3
3.039956300E1,-1.058528759E-4
3.040950000E1,1.372268423E-3
3.041943600E1,-1.712905280E-3
3.042937300E1,-4.560243487E-3
3.043930900E1,-3.305741642E-3
3.044924500E1,-6.586778797E-3
3.045918200E1,-7.271231934E-3
3.046911800E1,-8.558679186E-4
3.047905500E1,-5.604537930E-3
3.048899175E1,-4.023834541E-3
3.049892775E1,4.213503599E-3
3.050886475E1,3.639197387E-3
3.051880075E1,-5.417280849E-3
3.052873775E1,-2.028234657E-3
3.053867375E1,-8.713630401E-3
3.054860975E1,2.969307471E-3
3.055854675E1,-2.525156625E-3
3.056848275E1,-4.267590344E-3
3.057841975E1,-8.539182376E-3
3.058835575E1,-1.187697407E-3
3.059829175E1,-5.603003036E-3
3.060822875E1,-1.085924791E-2
3.061816475E1,-2.908606064E-3
3.062810175E1,-5.663722716E-3
3.063803775E1,-5.675179604E-3
3.064797375E1,-1.127778064E-2
3.065791075E1,-7.915759552E-3
3.066784675E1,-2.785997260E-3
3.067778375E1,-1.080254819E-3
3.068771975E1,2.123836633E-3
3.069765575E1,-2.828353029E-3
3.070759275E1,-1.231540561E-2
3.071752875E1,-1.155943371E-2
3.072746575E1,-4.999588653E-3
3.073740175E1,-2.402748819E-3
3.074733775E1,-3.292347863E-4
3.075727475E1,-9.998409860E-3
3.076721075E1,-6.512117162E-3
3.077714675E1,1.468893662E-3
3.078708375E1,-9.931605421E-3
3.079701975E1,-5.705932304E-3
3.080695675E1,3.211765923E-4
3.081689275E1,-6.486316323E-3
3.082682875E1,-1.052772906E-3
3.083676575E1,-7.228803076E-3
3.084670175E1,-1.361012533E-3
3.085663875E1,-6.760368012E-3
3.086657475E1,-1.532116681E-3
3.087651075E1,-5.167915374E-3
3.088644775E1,-2.532447372E-3
3.089638375E1,-5.585150756E-3
3.090632075E1,-5.742532220E-3
3.091625675E1,-5.782951098E-3
3.092619275E1,-8.888754509E-3
3.093612975E1,-1.171398293E-3
3.094606575E1,-6.497261580E-3
3.095600275E1,-4.558964409E-3
3.096593875E1,-3.480482027E-3
3.097587475E1,-2.908057887E-3
3.098581175E1,-1.128554648E-2
3.099574775E1,-7.162053455E-3
3.100568375E1,-1.833102107E-4
3.101562075E1,5.081595853E-5
3.102555675E1,-5.878114533E-3
3.103549375E1,9.823322296E-5
3.104542975E1,-6.094406694E-3
3.105536575E1,-9.580498394E-3
3.106530275E1,-1.941147689E-3
3.107523875E1,1.292709745E-3
3.108517575E1,2.033588514E-3
3.109511175E1,1.241528336E-3
3.110504775E1,3.947035018E-3
3.111498475E1,3.223387264E-3
3.112492075E1,5.412694439E-4
3.113485775E1,-4.089195449E-3
3.114479375E1,-1.055654487E-2
3.115472975E1,1.819032244E-3
3.116466675E1,-9.322124552E-3
3.117460275E1,-8.084871992E-4
3.118453975E1,-4.273748193E-3
3.119447575E1,1.552307848E-3
3.120441175E1,-7.940738127E-3
3.121434875E1,-4.252716489E-3
3.122428475E1,-1.645516120E-3
3.123422075E1,-7.642329130E-3
3.124415775E1,-1.282409510E-2
3.125409375E1,-4.930372238E-3
3.126403075E1,3.248146567E-3
3.127396675E1,1.614233516E-3
3.128390275E1,-7.081709057E-3
3.129383975E1,-8.879380692E-3
3.130377575E1,1.939466614E-3
3.131371275E1,2.234403826E-3
3.132364875E1,-8.750175498E-3
3.133358475E1,-5.146024860E-3
3.134352175E1,-4.018042143E-3
3.135345775E1,-5.800236929E-3
3.136339475E1,-1.463265717E-3
3.137333075E1,-4.205719493E-3
3.138326675E1,-6.913126521E-3
3.139320375E1,1.849200223E-3
3.140313975E1,-1.897001211E-3
3.141307675E1,1.656881645E-3
3.142301275E1,2.027138304E-3
3.143294875E1,-1.061598547E-2
3.144288575E1,-6.113629416E-3
3.145282175E1,-7.960143574E-3
3.146275875E1,-1.697446704E-3
3.147269475E1,-6.904794239E-3
3.148263062E1,-5.737087000E-3
3.149256762E1,7.762178779E-3
3.150250363E1,-1.357887927E-3
3.151243962E1,-3.408780545E-3
3.152237662E1,-1.311987285E-3
3.153231262E1,3.720766045E-3
3.154224962E1,-2.204747479E-3
3.155218562E1,3.333826549E-4
3.156212162E1,-1.059533749E-3
3.157205862E1,-1.218316717E-2
3.158199462E1,-4.013985638E-3
3.159193162E1,-5.074725375E-3
3.160186762E1,-9.667293001E-3
3.161180362E1,-1.814500652E-3
3.162174063E1,1.446071249E-3
3.163167662E1,-4.154775627E-3
3.164161362E1,-1.046816055E-3
3.165154962E1,-6.299972869E-3
3.166148562E1,-7.201905884E-3
3.167142262E1,-1.597769950E-3
3.168135862E1,-1.319570392E-3
3.169129462E1,-9.366691299E-4
3.170123162E1,-6.396525018E-3
3.171116762E1,-6.496475860E-3
3.172110462E1,-1.084563486E-2
3.173104062E1,-5.728663355E-3
3.174097663E1,-6.562421490E-3
3.175091363E1,-8.149611633E-3
3.176084962E1,-3.494405709E-3
3.177078662E1,2.346560732E-3
3.178072262E1,-1.056907983E-2
3.179065862E1,-3.100869823E-3
3.180059562E1,-5.346620902E-3
3.181053162E1,-1.081352999E-2
3.182046862E1,2.983322516E-3
3.183040462E1,-9.675095379E-3
3.184034062E1,-7.746811565E-3
3.185027762E1,-2.845602315E-3
3.186021362E1,3.017821088E-3
3.187014962E1,-5.583414864E-3
3.188008662E1,-1.343434341E-3
3.189002262E1,-8.070418406E-3
3.189995962E1,-3.229855746E-4
3.190989562E1,-2.553022262E-3
3.191983162E1,-1.185871979E-2
3.192976862E1,-9.830996767E-4
3.193970462E1,-5.333409850E-3
3.194964162E1,-1.367639987E-2
3.195957762E1,-1.236549066E-2
3.196951362E1,-1.229769951E-2
3.197945062E1,-8.382604904E-3
3.198938663E1,-8.414947316E-3
3.199932363E1,-1.035960333E-2
3.200925962E1,2.777153347E-3
3.201919562E1,-3.904861975E-3
3.202913262E1,-9.033509642E-3
3.203906862E1,-5.236236434E-3
3.204900462E1,-4.974920712E-3
3.205894162E1,-1.213059705E-3
3.206887762E1,-8.332538120E-3
3.207881462E1,2.476734370E-3
3.208875062E1,-7.650003601E-3
3.209868662E1,-3.388571106E-3
3.210862362E1,-5.674795881E-3
3.211855962E1,-5.372019745E-3
3.212849662E1,1.981840655E-3
3.213843262E1,-7.874372229E-3
3.214836862E1,-2.337789908E-3
3.215830562E1,-6.013039034E-3
3.216824162E1,1.671024598E-4
3.217817762E1,-4.862380084E-3
3.218811462E1,-1.577127451E-2
3.219805062E1,-1.069711559E-2
3.220798762E1,-7.450248096E-3
3.221792362E1,-5.716329385E-3
3.222785962E1,2.858009376E-3
3.223779663E1,-3.011608422E-3
3.224773262E1,-4.504512213E-3
3.225766962E1,-2.767121717E-3
3.226760562E1,-7.544570994E-3
3.227754162E1,-4.641720783E-3
3.228747862E1,-2.648605965E-3
3.229741462E1,-7.633795850E-3
3.230735162E1,-8.640759476E-3
3.231728762E1,-6.988793146E-3
3.232722362E1,-3.400174174E-3
3.233716062E1,-1.324997339E-3
3.234709662E1,-1.200217757E-2
3.235703263E1,4.099263623E-4
3.236696962E1,-6.666392293E-3
3.237690562E1,-2.409418300E-3
3.238684262E1,-1.219754767E-2
3.239677862E1,2.435365319E-3
3.240671462E1,-3.703882210E-3
3.241665162E1,-7.084815390E-4
3.242658762E1,-3.817519192E-3
3.243652462E1,-5.677335765E-3
3.244646062E1,1.300877575E-3
3.245639662E1,4.502502233E-3
3.246633362E1,-3.080843110E-3
3.247626962E1,-6.350935008E-3
3.248620525E1,-1.045929836E-2
3.249614225E1,-5.760183502E-3
3.250607825E1,3.006199747E-4
3.251601525E1,-4.413606282E-3
3.252595125E1,-1.017844928E-2
3.253588725E1,-4.179918654E-3
3.254582425E1,-5.218073521E-3
3.255576025E1,-6.766142137E-4
3.256569725E1,4.148234054E-4
3.257563325E1,-1.506818337E-2
3.258556925E1,-4.208113197E-3
3.259550625E1,2.798550501E-3
3.260544225E1,-8.678583652E-3
3.261537825E1,-8.749243598E-3
3.262531525E1,-1.361769017E-2
3.263525125E1,-8.561109435E-3
3.264518825E1,4.036259875E-3
3.265512425E1,-1.233800875E-2
3.266506025E1,-1.176271582E-2
3.267499725E1,-1.457509864E-3
3.268493325E1,-9.379299358E-3
3.269487025E1,-8.499841578E-3
3.270480625E1,-1.028945502E-2
3.271474225E1,-2.891338505E-3
3.272467925E1,-2.593971044E-4
3.273461525E1,-7.169508655E-3
3.274455225E1,-5.769301504E-3
3.275448825E1,-8.926852774E-3
3.276442425E1,-1.480588093E-2
3.277436125E1,-1.332474466E-2
3.278429725E1,-4.713056814E-3
3.279423325E1,-2.884687297E-4
3.280417025E1,-5.994401034E-3
3.281410625E1,-1.307340575E-2
3.282404325E1,-5.949359201E-3
3.283397925E1,-6.683732942E-4
3.284391525E1,-1.498032896E-2
3.285385225E1,-1.309176967E-2
3.286378825E1,-8.195494004E-3
3.287372525E1,-5.025188494E-3
3.288366125E1,-4.942761026E-3
3.289359725E1,-7.391922120E-3
3.290353425E1,-1.021930670E-2
3.291347025E1,-6.834974829E-3
3.292340625E1,-2.982957065E-3
3.293334325E1,-6.603607815E-3
3.294327925E1,-7.705716603E-3
3.295321625E1,-8.056586087E-3
3.296315225E1,-2.445141133E-3
3.297308825E1,-8.224364631E-3
3.298302525E1,7.398737781E-4
3.299296125E1,-6.477106959E-3
3.300289825E1,-1.014674641E-2
3.301283425E1,-9.361447077E-3
3.302277025E1,-6.638033297E-3
3.303270725E1,-4.404269010E-3
3.304264325E1,-4.762995690E-3
3.305257925E1,-9.093260877E-3
3.306251625E1,-1.968477940E-2
3.307245225E1,-1.533668021E-2
3.308238925E1,-1.459848750E-3
3.309232525E1,-5.367360245E-3
3.310226125E1,-2.750712968E-3
3.311219825E1,-5.959774554E-4
3.312213425E1,5.025901124E-3
3.313207125E1,-1.172238830E-2
3.314200725E1,-7.926430721E-3
3.315194325E1,-1.958532192E-2
3.316188025E1,-1.174747651E-2
3.317181625E1,-3.925235868E-3
3.318175225E1,-1.112723311E-2
3.319168925E1,-1.439255588E-3
3.320162525E1,-1.438963227E-4
3.321156225E1,-8.023275230E-3
3.322149825E1,-7.581700813E-3
3.323143425E1,-2.752942219E-4
3.324137125E1,-8.875525184E-3
3.325130725E1,-6.650696173E-3
3.326124325E1,-6.269073989E-3
3.327118025E1,-1.592660945E-2
3.328111625E1,-1.069748104E-3
3.329105325E1,-3.328253422E-3
3.330098925E1,-1.241711061E-2
3.331092525E1,-1.170322040E-2
3.332086225E1,-1.411620185E-2
3.333079825E1,-1.837112932E-2
3.334073525E1,-9.657517187E-3
3.335067125E1,-4.697981961E-3
3.336060725E1,-5.452236235E-3
3.337054425E1,-1.230625106E-2
3.338048025E1,-1.523813635E-2
3.339041625E1,-8.772778641E-3
3.340035325E1,-1.430839252E-2
3.341028925E1,-1.009174604E-2
3.342022625E1,-1.693556478E-2
3.343016225E1,-1.098216735E-2
3.344009825E1,-4.845678974E-3
3.345003525E1,-1.068609724E-2
3.345997125E1,-1.376070941E-2
3.346990825E1,-3.715996910E-3
3.347984425E1,-9.981105756E-3
3.348978000E1,-7.642018497E-3
3.349971700E1,1.370861437E-3
3.350965300E1,-1.692567933E-3
3.351958900E1,-8.002097346E-3
3.352952600E1,-1.076088678E-2
3.353946200E1,-1.040250728E-2
3.354939900E1,-8.179468978E-3
3.355933500E1,-1.169331668E-2
3.356927100E1,-5.823205523E-3
3.357920800E1,-1.173841333E-2
3.358914400E1,-7.513800021E-3
3.359908100E1,-3.124861680E-3
3.360901700E1,-5.486570355E-3
3.361895300E1,-1.439633830E-2
3.362889000E1,-1.129861135E-2
3.363882600E1,-9.294697456E-3
3.364876200E1,-9.495403133E-3
3.365869900E1,-7.066999655E-3
3.366863500E1,-1.437148763E-2
3.367857200E1,-1.417476537E-2
3.368850800E1,-1.061028443E-2
3.369844400E1,-1.105491037E-2
3.370838100E1,-1.681995437E-2
3.371831700E1,-1.411547095E-2
3.372825300E1,-8.957331385E-3
3.373819000E1,-9.578853864E-3
3.374812600E1,-7.215920929E-3
3.375806300E1,-2.488373984E-3
3.376799900E1,-4.173303992E-3
3.377793500E1,-1.164831139E-2
3.378787200E1,-6.538575813E-3
3.379780800E1,-7.692761365E-3
3.380774500E1,-1.175065594E-2
3.381768100E1,-1.415325858E-2
3.382761700E1,-7.256760076E-3
3.383755400E1,-5.247711595E-3
3.384749000E1,-1.323245002E-2
3.385742600E1,-1.033816963E-2
3.386736300E1,-8.304581121E-3
3.387729900E1,-8.781366739E-3
3.388723600E1,-1.081546688E-2
3.389717200E1,-9.623913970E-3
3.390710800E1,-1.529889258E-2
3.391704500E1,-1.243730178E-2
3.392698100E1,-6.870003305E-3
3.393691700E1,-5.867260639E-3
3.394685400E1,-5.941209644E-3
3.395679000E1,-1.204475261E-2
3.396672700E1,-1.727384448E-2
3.397666300E1,-1.143519865E-2
3.398659900E1,-1.398142353E-2
3.399653600E1,-1.547494859E-2
3.400647200E1,-2.434415147E-3
3.401640800E1,-4.141418394E-3
3.402634500E1,-1.475762313E-2
3.403628100E1,-5.620197505E-3
3.404621800E1,-1.266801098E-2
3.405615400E1,-6.043115649E-3
3.406609000E1,-1.009446865E-2
3.407602700E1,-4.061530810E-3
3.408596300E1,-7.300833464E-3
3.409590000E1,-1.337872177E-2
3.410583600E1,-9.540408421E-3
3.411577200E1,-1.266558073E-2
3.412570900E1,-7.833624445E-3
3.413564500E1,-6.708071977E-3
3.414558100E1,-8.629722856E-3
3.415551800E1,-5.228214785E-3
3.416545400E1,4.230789430E-3
3.417539100E1,-1.103495674E-2
3.418532700E1,-1.313975338E-2
3.419526300E1,-1.178477079E-2
3.420520000E1,-1.470291512E-2
3.421513600E1,-1.016680967E-2
3.422507300E1,-9.742722083E-3
3.423500900E1,-1.168728674E-2
3.424494500E1,-1.348857634E-2
3.425488200E1,-1.942810491E-2
3.426481800E1,-9.111058339E-3
3.427475400E1,-1.600583922E-3
3.428469100E1,-8.273389880E-3
3.429462700E1,-8.270046003E-3
3.430456400E1,-1.033396695E-2
3.431450000E1,-1.019558894E-2
3.432443600E1,-1.095632996E-2
3.433437300E1,-1.011497045E-2
3.434430900E1,-1.370792001E-2
3.435424500E1,-1.018197589E-2
3.436418200E1,-1.265348431E-2
3.437411800E1,-1.358187597E-2
3.438405500E1,-2.776641715E-3
3.439399100E1,-4.358185641E-3
3.440392700E1,-4.405146092E-3
3.441386400E1,-6.943733040E-3
3.442380000E1,-7.294967975E-3
3.443373600E1,-7.358099632E-3
3.444367300E1,-9.087011665E-3
3.445360900E1,-1.560828337E-2
3.446354600E1,-7.659962140E-3
3.447348200E1,-1.002304126E-2
3.448341825E1,-1.033820618E-2
3.449335525E1,-9.306464978E-3
3.450329125E1,-4.608081020E-3
3.451322725E1,-1.380717650E-2
3.452316425E1,-1.636690479E-3
3.453310025E1,-9.309352040E-3
3.454303725E1,-8.458984159E-3
3.455297325E1,-1.104619436E-2
3.456290925E1,-3.731656484E-3
3.457284625E1,-8.189518880E-3
3.458278225E1,-9.218738470E-3
3.459271925E1,-9.268019535E-3
3.460265525E1,-1.493954463E-2
3.461259125E1,-5.916907154E-3
3.462252825E1,-1.473381400E-2
3.463246425E1,-1.042706558E-2
3.464240025E1,-7.911684774E-3
3.465233725E1,-1.464438815E-2
3.466227325E1,-7.201284617E-3
3.467221025E1,-1.057849020E-2
3.468214625E1,-1.833484003E-2
3.469208225E1,-8.627274334E-3
3.470201925E1,8.891787753E-4
3.471195525E1,-8.988851532E-3
3.472189125E1,-1.601808183E-3
3.473182825E1,-1.476679595E-2
3.474176425E1,-1.491774548E-2
3.475170125E1,-1.005697338E-2
3.476163725E1,-7.694789618E-3
3.477157325E1,-1.167522686E-2
3.478151025E1,-9.841302484E-3
3.479144625E1,-9.324171077E-3
3.480138225E1,-1.392733678E-2
3.481131925E1,-1.516771395E-2
3.482125525E1,-1.073075535E-2
3.483119225E1,-1.408491924E-2
3.484112825E1,-9.753904883E-3
3.485106425E1,-4.332238622E-3
3.486100125E1,-9.634731319E-3
3.487093725E1,-1.576920971E-4
3.488087325E1,-8.799474835E-3
3.489081025E1,-1.401902843E-2
3.490074625E1,-1.294560755E-2
3.491068325E1,-1.117077660E-2
3.492061925E1,-6.803673953E-3
3.493055525E1,-8.498507682E-3
3.494049225E1,-4.178548213E-3
3.495042825E1,-1.868762814E-2
3.496036525E1,-9.198492486E-3
3.497030125E1,-5.143704247E-3
3.498023725E1,-1.600092391E-2
3.499017425E1,-1.314046601E-2
3.500011025E1,-9.213932790E-3
3.501004625E1,-2.610160522E-3
3.501998325E1,-1.413142288E-2
3.502991925E1,-8.143673055E-3
3.503985625E1,-3.606325071E-3
3.504979225E1,-5.203875750E-3
3.505972825E1,-3.941882160E-3
3.506966525E1,-1.083353844E-2
3.507960125E1,9.333617985E-5
3.508953725E1,-2.869521081E-3
3.509947425E1,-7.947882693E-3
3.510941025E1,-1.339246273E-2
3.511934725E1,-1.978807412E-3
3.512928325E1,-1.591381866E-2
3.513921925E1,-1.625608178E-2
3.514915625E1,-1.046251433E-2
3.515909225E1,-9.268878344E-3
3.516902825E1,-1.247978546E-3
3.517896525E1,-7.877971921E-3
3.518890125E1,-9.476545863E-3
3.519883825E1,-1.081402335E-2
3.520877425E1,-9.291554578E-3
3.521871025E1,-1.298262773E-2
3.522864725E1,-6.448839325E-3
3.523858325E1,-7.251296584E-3
3.524851925E1,-8.877717890E-4
3.525845625E1,-1.493181534E-2
3.526839225E1,-8.761668932E-3
3.527832925E1,-1.099910600E-2
3.528826525E1,-1.148082521E-2
3.529820125E1,-2.562699404E-2
3.530813825E1,-1.131960651E-2
3.531807425E1,-6.752382908E-3
3.532801125E1,-3.804235049E-3
3.533794725E1,-9.781532977E-3
3.534788325E1,-1.263358550E-2
3.535782025E1,-1.891038878E-2
3.536775625E1,-1.066157548E-2
3.537769225E1,-1.688449301E-2
3.538762925E1,-1.857285826E-2
3.539756525E1,-6.153463572E-3
3.540750225E1,-1.007862635E-2
3.541743825E1,-6.857925151E-3
3.542737425E1,-6.815459747E-3
3.543731125E1,-1.061260505E-2
3.544724725E1,-1.423448006E-2
3.545718325E1,-8.591642864E-3
3.546712025E1,-7.202417515E-3
3.547705625E1,-1.577673800E-2
3.548699204E1,-4.695332441E-3
3.549692904E1,-4.586409777E-4
3.550686504E1,-2.618072536E-3
3.551680204E1,-1.465388987E-2
3.552673804E1,-1.852688452E-2
3.553667404E1,-1.240521519E-2
3.554661104E1,-9.570393674E-3
3.555654704E1,-1.055625251E-2
3.556648404E1,-9.471648820E-3
3.557642004E1,-4.062188622E-3
3.558635604E1,-7.202691603E-3
3.559629304E1,-1.369306443E-2
3.560622904E1,-1.485779325E-2
3.561616504E1,-1.111917492E-2
3.562610204E1,-9.507627469E-3
3.563603804E1,-1.259249054E-2
3.564597504E1,-2.677641045E-3
3.565591104E1,-1.359910699E-2
3.566584704E1,-1.913176071E-2
3.567578404E1,-9.555940088E-3
3.568572004E1,-9.143126663E-3
3.569565604E1,-4.583084174E-3
3.570559304E1,-7.632206138E-3
3.571552904E1,-4.628655910E-3
3.572546604E1,1.386155561E-3
3.573540204E1,-7.455145139E-3
3.574533804E1,-6.028936151E-3
3.575527504E1,-1.159448046E-3
3.576521104E1,-9.432435930E-3
3.577514704E1,-1.534711383E-3
3.578508404E1,-4.585825056E-3
3.579502004E1,-6.826204006E-3
3.580495704E1,-8.866151366E-3
3.581489304E1,-1.058207162E-2
3.582482904E1,-1.369198635E-2
3.583476604E1,-7.411108296E-3
3.584470204E1,-9.759459738E-3
3.585463804E1,-1.129875753E-2
3.586457504E1,4.833454639E-4
3.587451104E1,-1.232551033E-2
3.588444804E1,-6.007301454E-3
3.589438404E1,2.028691471E-3
3.590432004E1,-1.322510445E-2
3.591425704E1,-7.533570919E-3
3.592419304E1,-6.615594607E-3
3.593412904E1,-8.786720596E-4
3.594406604E1,-5.891033225E-3
3.595400204E1,-7.576255593E-3
3.596393904E1,-6.744543985E-3
3.597387504E1,-6.994512454E-3
3.598381104E1,-1.310348237E-2
3.599374804E1,-3.187499978E-3
3.600368404E1,-4.182915352E-3
3.601362004E1,-1.359638438E-2
3.602355704E1,-8.876511902E-3
3.603349304E1,-2.466337290E-3
3.604343004E1,-4.831097480E-3
3.605336604E1,4.840142392E-3
3.606330204E1,-1.025481027E-2
3.607323904E1,-1.041482298E-2
3.608317504E1,-1.167151753E-2
3.609311104E1,-4.921564870E-3
3.610304804E1,-4.118047804E-3
3.611298404E1,-5.397382043E-3
3.612292104E1,-4.403465018E-3
3.613285704E1,-1.199636690E-2
3.614279304E1,-1.525962487E-2
3.615273004E1,-1.575976280E-2
3.616266604E1,-8.977540825E-3
3.617260204E1,-8.778095953E-3
3.618253904E1,-8.084068000E-3
3.619247504E1,-1.476897039E-2
3.620241204E1,-2.814904433E-3
3.621234804E1,-9.665557109E-3
3.622228404E1,-7.667801064E-3
3.623222104E1,-3.262545336E-3
3.624215704E1,-4.197752662E-3
3.625209304E1,-1.188260201E-2
3.626203004E1,-6.962407585E-3
3.627196604E1,-1.174201302E-2
3.628190304E1,-5.673516802E-3
3.629183904E1,-7.862933613E-3
3.630177504E1,-8.727736808E-3
3.631171204E1,-1.130495192E-2
3.632164804E1,-7.735044044E-3
3.633158404E1,-1.179279244E-2
3.634152104E1,-1.174687352E-2
3.635145704E1,-9.912291337E-3
3.636139404E1,-2.554849517E-3
3.637133004E1,-4.078268465E-3
3.638126604E1,-1.176293509E-2
3.639120304E1,-9.872712996E-3
3.640113904E1,-4.704578351E-3
3.641107504E1,-6.036939528E-3
3.642101204E1,-9.694263283E-3
3.643094804E1,-4.795447737E-4
3.644088504E1,-9.076559767E-3
3.645082104E1,-1.460866531E-2
3.646075704E1,-5.736812912E-3
3.647069404E1,-5.097511243E-3
3.648063004E1,-5.895199366E-3
3.649056625E1,-9.272222221E-3
3.650050325E1,-1.189400408E-2
3.651043925E1,-1.227745352E-2
3.652037525E1,-1.302631740E-2
3.653031225E1,-8.658447303E-3
3.654024825E1,2.404484712E-3
3.655018525E1,2.327191830E-4
3.656012125E1,-6.973809656E-3
3.657005725E1,-1.106932741E-2
3.657999425E1,-1.030114945E-3
3.658993025E1,-4.170398656E-3
3.659986625E1,-5.078635700E-3
3.660980325E1,-9.803240765E-3
3.661973925E1,-7.445515506E-3
3.662967625E1,-6.311959662E-3
3.663961225E1,-3.290977422E-3
3.664954825E1,-3.184247464E-3
3.665948525E1,-5.182442050E-3
3.666942125E1,-4.856459778E-3
3.667935825E1,1.800613515E-3
3.668929425E1,-9.029745497E-3
3.669923025E1,2.013031896E-3
3.670916725E1,-2.035470586E-3
3.671910325E1,3.848746978E-4
3.672903925E1,-8.976974376E-3
3.673897625E1,-1.204758486E-2
3.674891225E1,-2.693538163E-3
3.675884925E1,-6.991040669E-3
3.676878525E1,-9.353662971E-3
3.677872125E1,-1.124218572E-2
3.678865825E1,-8.791599367E-3
3.679859425E1,-1.062475629E-3
3.680853025E1,-1.082447525E-3
3.681846725E1,1.831658576E-3
3.682840325E1,1.559287962E-3
3.683833925E1,2.475437019E-3
3.684827625E1,6.286305003E-4
3.685821225E1,-3.443425298E-3
3.686814925E1,-9.013080932E-3
3.687808525E1,-1.384929473E-2
3.688802125E1,-1.157310158E-2
3.689795825E1,-2.764143292E-3
3.690789425E1,-4.323321618E-3
3.691783025E1,-8.324151020E-3
3.692776725E1,-2.456853837E-3
3.693770325E1,-1.060228106E-3
3.694764025E1,-2.734432127E-3
3.695757625E1,-1.036775289E-2
3.696751225E1,-1.037190076E-2
3.697744925E1,-9.867450502E-3
3.698738525E1,-1.140088281E-2
3.699732125E1,-3.118959647E-3
3.700725825E1,-7.566004694E-3
3.701719425E1,-1.040888440E-2
3.702713125E1,-6.696834359E-3
3.703706725E1,-4.237294458E-3
3.704700325E1,-4.632675871E-3
3.705694025E1,-8.240170386E-3
3.706687625E1,-4.805461094E-3
3.707681225E1,-6.110596173E-3
3.708674925E1,-3.004153222E-3
3.709668525E1,-3.407190833E-3
3.710662225E1,-3.655478228E-3
3.711655825E1,-4.132611025E-3
3.712649425E1,1.598482579E-4
3.713643125E1,-4.829215407E-3
3.714636725E1,-7.934525460E-3
3.715630325E1,-8.082770649E-3
3.716624025E1,-2.701815628E-3
3.717617625E1,-1.011836914E-2
3.718611325E1,-1.878016032E-3
3.719604925E1,8.465489186E-4
3.720598525E1,-8.185096923E-3
3.721592225E1,-5.088356696E-3
3.722585825E1,-6.448108424E-3
3.723579425E1,-1.340291463E-4
3.724573125E1,-1.827985793E-4
3.725566725E1,-7.401624843E-3
3.726560325E1,-9.980137311E-3
3.727554025E1,-3.011389151E-3
3.728547625E1,-5.451322608E-3
3.729541325E1,-3.181031495E-3
3.730534925E1,-4.416676071E-3
3.731528525E1,-1.004677730E-2
3.732522225E1,-1.445632707E-2
3.733515825E1,-1.719081402E-3
3.734509425E1,-6.648649648E-3
3.735503125E1,-7.799564414E-3
3.736496725E1,-9.718931224E-3
3.737490425E1,-7.195455674E-3
3.738484025E1,-5.382069647E-3
3.739477625E1,-1.279409157E-2
3.740471325E1,-1.053611616E-2
3.741464925E1,-9.261934776E-3
3.742458525E1,-4.930408783E-3
3.743452225E1,-3.983945567E-3
3.744445825E1,-1.150264263E-2
3.745439525E1,-5.380333755E-3
3.746433125E1,-9.586729333E-3
3.747426725E1,-1.055190364E-2
3.748420425E1,-7.535489537E-3
3.749414029E1,-8.295134213E-3
3.750407629E1,-1.708488805E-2
3.751401329E1,-5.941081736E-3
3.752394929E1,-4.543158654E-3
3.753388629E1,-9.006447997E-3
3.754382229E1,-1.232229436E-2
3.755375829E1,-1.008533238E-2
3.756369529E1,2.229598146E-3
3.757363129E1,1.110057347E-3
3.758356729E1,-6.214311160E-3
3.759350429E1,-1.146978859E-2
3.760344029E1,-3.064470906E-3
3.761337729E1,-1.462456243E-2
3.762331329E1,-8.186960723E-3
3.763324929E1,-1.085467977E-2
3.764318629E1,-1.151278390E-2
3.765312229E1,-5.691643171E-3
3.766305829E1,-1.318241978E-2
3.767299529E1,-9.369085003E-3
3.768293129E1,-1.746334909E-2
3.769286829E1,-9.328501672E-3
3.770280429E1,-1.117532646E-2
3.771274029E1,-1.042341108E-2
3.772267729E1,-1.734962074E-2
3.773261329E1,-1.096745795E-2
3.774254929E1,-7.775408104E-3
3.775248629E1,-8.544134237E-3
3.776242229E1,-9.978218693E-3
3.777235829E1,-1.110240072E-2
3.778229529E1,-1.914703656E-2
3.779223129E1,-9.220309909E-3
3.780216829E1,-7.696964052E-3
3.781210429E1,-1.135675460E-3
3.782204029E1,-1.047744300E-2
3.783197729E1,-1.249718092E-2
3.784191329E1,-1.609343782E-2
3.785184929E1,-7.932716478E-3
3.786178629E1,-1.267241467E-2
3.787172229E1,1.834691819E-3
3.788165929E1,-9.179836214E-3
3.789159529E1,-7.111548129E-3
3.790153129E1,-9.643538687E-3
3.791146829E1,-4.658184350E-3
3.792140429E1,-7.122931927E-3
3.793134029E1,-5.854013041E-3
3.794127729E1,-1.054362617E-3
3.795121329E1,-9.672573768E-3
3.796115029E1,-9.418128524E-3
3.797108629E1,-4.853682350E-3
3.798102229E1,-7.407727875E-3
3.799095929E1,-9.772652518E-3
3.800089529E1,-6.895073242E-3
3.801083129E1,-6.679786071E-3
3.802076829E1,-5.495414268E-3
3.803070429E1,-4.041504096E-3
3.804064129E1,-3.282754775E-3
3.805057729E1,-7.675018720E-3
3.806051329E1,-1.431325302E-3
3.807045029E1,-6.790663898E-3
3.808038629E1,-9.016095903E-3
3.809032229E1,-2.674041353E-3
3.810025929E1,-9.265680648E-3
3.811019529E1,-1.084132254E-2
3.812013229E1,-1.218324026E-2
3.813006829E1,-9.008512795E-3
3.814000429E1,-4.897591285E-4
3.814994129E1,-1.195812246E-2
3.815987729E1,-8.235675339E-3
3.816981329E1,-7.067273743E-3
3.817975029E1,-8.153101690E-3
3.818968629E1,-6.839214060E-3
3.819962229E1,-9.164158367E-3
3.820955929E1,2.191463336E-3
3.821949529E1,-1.143563719E-2
3.822943229E1,-1.914615948E-3
3.823936829E1,-1.036959842E-2
3.824930429E1,-1.172101786E-2
3.825924129E1,-6.019781604E-3
3.826917729E1,-1.216253746E-2
3.827911329E1,-7.029522657E-3
3.828905029E1,-2.843994331E-3
3.829898629E1,-4.601393268E-3
3.830892329E1,-6.194540262E-3
3.831885929E1,-3.798168562E-3
3.832879529E1,-6.952339411E-3
3.833873229E1,2.108652145E-4
3.834866829E1,1.091200076E-3
3.835860429E1,-5.536034144E-3
3.836854129E1,-5.174566582E-3
3.837847729E1,-9.772250522E-3
3.838841429E1,-7.516522631E-3
3.839835029E1,-2.835552413E-3
3.840828629E1,-5.752381124E-3
3.841822329E1,-1.755644772E-3
3.842815929E1,-3.497146592E-3
3.843809529E1,-6.107928380E-3
3.844803229E1,-6.579086054E-3
3.845796829E1,-3.432644494E-3
3.846790529E1,-1.558282971E-4
3.847784129E1,-1.003510114E-2
3.848777687E1,-5.916231070E-3
3.849771387E1,1.622054167E-4
3.850764987E1,4.227536917E-4
3.851758588E1,-9.684341289E-3
3.852752287E1,-1.094702924E-2
3.853745887E1,-9.003177211E-3
3.854739587E1,-2.148577664E-3
3.855733187E1,-1.602995899E-3
3.856726787E1,8.552247249E-3
3.857720487E1,9.027881697E-3
3.858714087E1,-1.141984971E-2
3.859707687E1,-6.666995287E-3
3.860701387E1,-5.279396195E-3
3.861694987E1,1.301122427E-2
3.862688587E1,8.618247695E-4
3.863682288E1,1.009887233E-3
3.864675887E1,-1.281819306E-3
3.865669587E1,3.061017394E-4
3.866663187E1,-9.272989668E-3
3.867656787E1,-1.015823985E-2
3.868650487E1,-7.772557586E-3
3.869644087E1,-7.723440975E-4
3.870637687E1,-8.535071053E-3
3.871631387E1,-1.029051483E-2
3.872624987E1,-5.885551460E-3
3.873618687E1,-6.330232210E-3
3.874612287E1,-1.132545372E-2
3.875605888E1,-1.009322612E-2
3.876599588E1,-8.863264304E-3
3.877593187E1,-1.820329595E-3
3.878586787E1,-1.965139546E-3
3.879580487E1,-8.361755926E-3
3.880574087E1,7.897413913E-3
3.881567787E1,-1.059756674E-2
3.882561387E1,-7.803383376E-3
3.883554987E1,-7.751982696E-3
3.884548687E1,-2.370205410E-3
3.885542287E1,-2.078356259E-3
3.886535887E1,-2.578951009E-3
3.887529587E1,5.880288966E-4
3.888523187E1,-8.888681419E-3
3.889516787E1,-9.568237513E-3
3.890510487E1,-7.188859284E-3
3.891504087E1,-3.435440194E-3
3.892497787E1,-3.637808673E-3
3.893491387E1,-3.196088076E-3
3.894484987E1,3.228266034E-3
3.895478687E1,2.765550278E-3
3.896472287E1,2.081444319E-3
3.897465887E1,-6.569894962E-3
3.898459587E1,-3.731930573E-3
3.899453187E1,-6.812444776E-3
3.900446888E1,5.359557867E-3
3.901440487E1,-2.244599909E-4
3.902434087E1,-1.269448791E-3
3.903427787E1,-9.302481562E-3
3.904421387E1,-1.727802889E-2
3.905414987E1,-1.327283235E-2
3.906408687E1,-6.828597710E-3
3.907402287E1,-4.612265434E-3
3.908395987E1,-6.176633164E-3
3.909389587E1,-6.497974209E-3
3.910383187E1,-1.140919682E-3
3.911376887E1,6.073795259E-5
3.912370488E1,-5.785527527E-3
3.913364087E1,-6.455947347E-3
3.914357787E1,-1.278212305E-2
3.915351387E1,-4.321658816E-3
3.916345087E1,-6.350788828E-3
3.917338687E1,-1.082401844E-2
3.918332287E1,-8.416664936E-3
3.919325987E1,-7.099305522E-3
3.920319587E1,-6.622026544E-3
3.921313187E1,-4.924945291E-3
3.922306887E1,1.534839291E-3
3.923300487E1,-7.201960701E-3
3.924294088E1,-5.793457814E-3
3.925287787E1,-4.496362656E-3
3.926281387E1,-1.142419858E-2
3.927275087E1,-1.858574040E-3
3.928268687E1,-3.284618575E-3
3.929262287E1,-5.310368165E-3
3.930255987E1,-9.463371355E-3
3.931249587E1,-6.670814250E-3
3.932243187E1,-3.621326834E-3
3.933236887E1,2.974222787E-4
3.934230487E1,-9.795602839E-3
3.935224187E1,-1.369427042E-2
3.936217788E1,-7.615121305E-3
3.937211387E1,-2.389135770E-3
3.938205087E1,-3.963388950E-3
3.939198687E1,-8.915286250E-3
3.940192287E1,-4.392318763E-3
3.941185987E1,-2.932214197E-3
3.942179587E1,-5.421848986E-3
3.943173287E1,-6.108458284E-3
3.944166887E1,-1.222375050E-2
3.945160487E1,-1.127361450E-3
3.946154187E1,-3.287560456E-3
3.947147787E1,-1.319077034E-3
3.948141388E1,-6.710319500E-3
3.949135142E1,-3.011005428E-3
3.950128742E1,-1.774319317E-3
3.951122342E1,-6.242633611E-4
3.952116042E1,-1.700644400E-2
3.953109642E1,-2.177155931E-3
3.954103342E1,-2.611220330E-3
3.955096942E1,-7.389930412E-3
3.956090542E1,-6.927086748E-3
3.957084242E1,-2.792191654E-3
3.958077842E1,-7.731480896E-4
3.959071442E1,-5.113353543E-3
3.960065142E1,-1.081802504E-2
3.961058742E1,-3.093944527E-3
3.962052442E1,-8.048546165E-3
3.963046042E1,-6.788928006E-3
3.964039642E1,-7.597360387E-4
3.965033342E1,2.953355536E-3
3.966026942E1,2.093705200E-3
3.967020542E1,-5.217159893E-3
3.968014242E1,-6.416076645E-3
3.969007842E1,-6.233040523E-3
3.970001542E1,-7.260579038E-3
3.970995142E1,-1.999692935E-3
3.971988742E1,-9.045825340E-4
3.972982442E1,-5.189275984E-3
3.973976042E1,-4.331215359E-3
3.974969642E1,-9.185738247E-3
3.975963342E1,-9.366892297E-3
3.976956942E1,-5.258401036E-3
3.977950542E1,2.235518452E-3
3.978944242E1,8.084871992E-4
3.979937842E1,-5.999023989E-3
3.980931542E1,-1.294957269E-3
3.981925142E1,-5.110356845E-3
3.982918742E1,-4.444157984E-3
3.983912442E1,-9.735065885E-3
3.984906042E1,-4.904863760E-3
3.985899642E1,-4.997487310E-3
3.986893342E1,-6.047464516E-3
3.987886942E1,-6.465887614E-3
3.988880642E1,2.684749067E-3
3.989874242E1,-5.936933868E-3
3.990867842E1,-5.768826418E-4
3.991861542E1,2.244179640E-3
3.992855142E1,-2.696480043E-4
3.993848742E1,-8.055690732E-3
3.994842442E1,-1.020573020E-2
3.995836042E1,-9.389732983E-3
3.996829742E1,-1.382318325E-4
3.997823342E1,1.162024476E-3
3.998816942E1,-1.040329300E-3
3.999810642E1,4.364105947E-3
4.000804242E1,-1.056336053E-3
4.001797842E1,-2.410076112E-3
4.002791542E1,-5.394641161E-3
4.003785142E1,-2.865811754E-3
4.004778842E1,-4.177981764E-3
4.005772442E1,-5.743975751E-3
4.006766042E1,2.537655048E-3
4.007759742E1,1.644017771E-3
4.008753342E1,-2.718059923E-3
4.009746942E1,-3.679872081E-3
4.010740642E1,-7.479155269E-3
4.011734242E1,-2.899287064E-3
4.012727842E1,-2.688476667E-3
