Time (s),Linear Acceleration x (m/s^2)
2.130417300E-2,5.698930472E-4
2.923874300E-2,7.565598935E-5
3.717331300E-2,-3.775269724E-4
4.507736600E-2,8.992711082E-5
5.301193700E-2,-3.214296885E-5
6.094650700E-2,7.571931928E-5
6.888107700E-2,-1.239528647E-3
7.681564700E-2,1.256628893E-4
8.475021800E-2,-4.911676049E-3
9.265427100E-2,-7.430687081E-3
1.005888410E-1,4.252133425E-3
1.084928940E-1,-3.054535016E-3
1.164274640E-1,-3.699189983E-5
1.243620340E-1,3.145309165E-6
1.322660870E-1,2.152941488E-5
1.402311750E-1,-2.060495317E-4
1.481352280E-1,-5.160867237E-3
1.560697980E-1,-5.202151369E-3
1.640043680E-1,1.433398575E-5
1.719084210E-1,2.642534673E-5
1.798124740E-1,1.204330474E-4
1.877165260E-1,1.607183367E-4
1.956205790E-1,1.023419667E-3
2.035551490E-1,-8.717740886E-3
2.114592020E-1,-6.406746805E-3
2.193937720E-1,5.704899668E-4
2.273588600E-1,-6.860779598E-3
2.352934310E-1,-7.026039064E-3
2.432280010E-1,2.426177962E-3
2.511625710E-1,-5.148701894E-5
2.590971420E-1,6.842124276E-3
2.670317120E-1,-7.730559446E-3
2.749662820E-1,-1.623155549E-4
2.829008530E-1,-8.240807801E-6
2.908354230E-1,-4.253424704E-4
2.987699930E-1,-1.659921836E-4
3.066740460E-1,-8.098781109E-6
3.146086160E-1,-2.649485366E-3
3.225431870E-1,-3.023004625E-3
3.304472390E-1,8.755621500E-3
3.383818100E-1,-5.816527177E-3
3.462858620E-1,-1.320206374E-2
3.542204330E-1,5.745125003E-3
3.621550030E-1,9.155331645E-4
3.701200910E-1,-4.039029125E-3
3.780546610E-1,5.844887346E-4
3.859892310E-1,-4.286803771E-3
3.939238020E-1,3.780191764E-4
4.018583720E-1,2.441416029E-3
4.097929420E-1,-4.741187207E-3
4.177275130E-1,-4.947365262E-3
4.256620830E-1,-1.459647249E-2
4.335966530E-1,-7.674922235E-3
4.415312240E-1,-3.176869825E-3
4.494352760E-1,-8.661188185E-4
4.573698470E-1,-8.294998668E-3
4.652738990E-1,-1.324778050E-2
4.732084700E-1,-1.395115629E-3
4.811430400E-1,7.905946113E-4
4.890776100E-1,3.184560221E-3
4.970121810E-1,-1.377084665E-2
5.049772690E-1,-1.388842613E-2
5.129118390E-1,-2.165385988E-3
5.208464090E-1,-9.526730515E-3
5.287809800E-1,-7.257339545E-3
5.367155500E-1,-9.733881801E-3
5.446501200E-1,-5.110797472E-3
5.525846900E-1,-2.840699162E-3
5.605192610E-1,-1.267280709E-2
5.684538310E-1,-7.967836224E-3
5.763884010E-1,-1.288229134E-2
5.843229720E-1,-8.232136257E-3
5.922575420E-1,-1.320805121E-2
6.001921120E-1,-1.337409299E-2
6.080961650E-1,-4.088290036E-3
6.160307350E-1,-6.795559544E-3
6.239347880E-1,-9.307862259E-3
6.318693580E-1,2.449684776E-3
6.398039290E-1,-2.154555172E-2
6.477384990E-1,-1.209279336E-2
6.557035870E-1,-5.101339892E-3
6.636381570E-1,-5.209900439E-3
6.715727280E-1,-1.720795594E-2
6.795072980E-1,-5.709799007E-4
6.874418680E-1,-1.031394023E-2
6.953764380E-1,-7.974147797E-3
7.032804910E-1,-1.080641523E-3
7.112150620E-1,-1.164042391E-3
7.191496320E-1,-1.334385574E-2
7.270536850E-1,-8.627543226E-3
7.349882550E-1,-1.356896758E-2
7.429228250E-1,-1.757587306E-3
7.508879130E-1,-1.178338565E-2
7.588224830E-1,-1.417758688E-2
7.667570540E-1,-1.435867697E-2
7.746916240E-1,-7.326142862E-3
7.825956770E-1,-1.927571557E-2
7.905302470E-1,-1.223382726E-2
7.984648170E-1,-2.854259685E-3
8.063993880E-1,-1.020282693E-2
8.143644760E-1,-7.983248681E-3
8.222990460E-1,-1.293396484E-2
8.302336160E-1,-1.058170199E-2
8.381681870E-1,-1.542136446E-2
8.460722390E-1,-1.076646894E-2
8.540068100E-1,-1.316460129E-2
8.619108620E-1,-8.533914573E-3
8.698454330E-1,-1.352215372E-2
8.777800030E-1,-4.002305679E-3
8.857145730E-1,-1.596825942E-2
8.936491440E-1,-8.910956793E-3
9.016142310E-1,-1.618778333E-2
9.095488020E-1,-4.325918853E-3
9.174833720E-1,-2.111175843E-2
9.254179420E-1,-1.392395701E-2
9.333525130E-1,-1.637982763E-2
9.412565650E-1,-1.635006256E-2
9.491911360E-1,-2.100758441E-2
9.571257060E-1,-4.386804998E-3
9.650297590E-1,-2.349113859E-2
9.729643290E-1,-1.634113491E-2
9.808988990E-1,-1.640919223E-2
9.888639870E-1,-2.119392529E-2
9.967985580E-1,-6.982785184E-3
1.004733128E0,-9.457927197E-3
1.012667698E0,-1.431701425E-2
1.020602269E0,-1.440747641E-2
1.028536839E0,-9.690183215E-3
1.036471409E0,-1.233790256E-2
1.044405980E0,-1.472004224E-2
1.052340550E0,-1.713037491E-2
1.060244603E0,-1.957844570E-2
1.068179173E0,-2.189627662E-2
1.076113743E0,-1.727287844E-2
1.084078831E0,-1.468360331E-2
1.092013401E0,-1.218597218E-2
1.099947972E0,-9.798276238E-3
1.107882542E0,-1.446739119E-2
1.115817112E0,-1.196336560E-2
1.123751683E0,-7.228236180E-3
1.131686253E0,-9.567213245E-3
1.139620823E0,-6.969401147E-3
1.147555394E0,-1.399804000E-2
1.155489964E0,-1.867409796E-2
1.163424534E0,-2.082188986E-2
1.171359105E0,-4.055070691E-3
1.179293675E0,-1.575628854E-2
1.187228245E0,-1.096742600E-2
1.195162815E0,-1.079682820E-2
1.203097386E0,-1.552058943E-2
1.211031956E0,-1.296685822E-2
1.218936009E0,-1.056111418E-2
1.226870579E0,-1.049321517E-2
1.234805149E0,-8.104086854E-3
1.242739720E0,-1.766198128E-2
1.250704808E0,-1.299336366E-2
1.258639378E0,-2.011986449E-2
1.266573948E0,-1.518906839E-2
1.274508519E0,-1.273492258E-2
1.282443089E0,-3.103235736E-3
1.290377659E0,-7.784927264E-3
1.298281712E0,-3.073575906E-3
1.306216282E0,-7.833471522E-3
1.314150853E0,-7.701150142E-3
1.322085423E0,-5.244669970E-3
1.330019993E0,-7.568033412E-3
1.337985081E0,-5.140283611E-3
1.345919651E0,-1.694155484E-2
1.353854222E0,-7.367894985E-3
1.361788792E0,-7.318886928E-3
1.369723362E0,-2.596313134E-4
1.377657933E0,-1.450135745E-2
1.385592503E0,-7.300185040E-3
1.393527073E0,-9.700512514E-3
1.401431126E0,4.650605842E-3
1.409365696E0,-1.439006068E-2
1.417330784E0,-1.677678339E-2
1.425265355E0,-9.410271421E-3
1.433199925E0,-1.419541426E-2
1.441134495E0,-6.986310706E-3
1.449069065E0,-9.298276156E-3
1.456973118E0,-4.491691012E-3
1.464907688E0,-1.873037219E-2
1.472842259E0,-6.739939563E-3
1.480746312E0,-1.400176622E-2
1.488680882E0,-9.248476475E-3
1.496645970E0,-1.159607526E-2
1.504580540E0,-2.330809459E-2
1.512515110E0,-2.308608219E-2
1.520449681E0,-6.353121251E-3
1.528384251E0,-1.601646654E-3
1.536318821E0,-1.110555045E-2
1.544253392E0,-6.344352849E-3
1.552187962E0,-2.055481449E-2
1.560092015E0,-1.335365884E-2
1.567996067E0,-2.046484500E-2
1.575930638E0,-1.305327751E-3
1.583895726E0,-1.322145015E-2
1.591830296E0,-1.299381629E-2
1.599764866E0,-2.242873982E-2
1.607699437E0,-1.034441404E-2
1.615603489E0,1.621459611E-3
1.623538060E0,-1.274094917E-2
1.631442112E0,-8.910354227E-4
1.639346165E0,-8.169960231E-3
1.647311253E0,-1.060464606E-2
1.655245823E0,-1.299805753E-2
1.663180394E0,-9.827790782E-4
1.671114964E0,-1.768616028E-2
1.679049534E0,-1.051245537E-2
1.686984105E0,-1.518339477E-2
1.694918675E0,-8.054351434E-3
1.702853245E0,-1.291120239E-2
1.710787815E0,-1.528529078E-2
1.718691868E0,-1.044769399E-2
1.726626438E0,-1.282780990E-2
1.734591526E0,-1.994958892E-2
1.742526097E0,-1.255482994E-2
1.750460667E0,-7.054824382E-4
1.758395237E0,-1.016384270E-2
1.766329808E0,-1.000089198E-2
1.774233860E0,-5.195998587E-3
1.782168431E0,-1.236962341E-2
1.790103001E0,-1.933588088E-2
1.798068089E0,-9.763178416E-3
1.806002659E0,-5.007649772E-3
1.813937230E0,-3.021359444E-4
1.821871800E0,-5.034871399E-3
1.829806370E0,-2.557584550E-3
1.837740940E0,-9.792379104E-3
1.845675511E0,2.208261751E-3
1.853579563E0,-1.205348782E-2
1.861514134E0,-1.203082129E-2
1.869418187E0,-1.195113547E-2
1.877352757E0,-1.184220426E-2
1.885317845E0,-1.172717661E-2
1.893221897E0,-6.804592442E-3
1.901156468E0,-9.126353078E-3
1.909091038E0,-1.635876670E-2
1.917025608E0,-9.061104618E-3
1.924960179E0,-4.301060922E-3
1.932864231E0,-1.387102064E-2
1.940798802E0,-9.016215801E-3
1.948763890E0,-1.386591885E-2
1.956698460E0,-6.641312037E-3
1.964633030E0,-1.618571766E-2
1.972567601E0,-1.119880937E-2
1.980502171E0,-8.775919676E-3
1.988436741E0,-1.112660207E-2
1.996371312E0,-1.108279638E-2
2.004305882E0,-8.607630618E-3
2.012240452E0,-3.685208969E-3
2.020175022E0,-1.245908905E-3
2.028109593E0,-1.070538536E-2
2.036013646E0,-1.211788040E-3
2.043948216E0,-6.041074637E-3
2.051852269E0,-6.021570880E-3
2.059786839E0,-8.396156132E-3
2.067721409E0,5.871625617E-3
2.075686497E0,1.080680639E-3
2.083621067E0,-8.472294547E-3
2.091555638E0,-1.285417471E-3
2.099490208E0,-1.084408350E-2
2.107424778E0,-1.557585038E-2
2.115328831E0,-1.122277696E-3
2.123263401E0,-1.308426447E-2
2.131167454E0,-8.311363868E-3
2.139102024E0,-8.327491581E-3
2.147036595E0,-1.315533463E-2
2.155001683E0,-8.392638527E-3
2.162936253E0,-8.433924988E-3
2.170840306E0,-1.309976820E-2
2.178774876E0,-3.563802689E-3
2.186739964E0,-5.896932911E-3
2.194613499E0,-1.059703901E-2
2.202548069E0,-9.383778088E-4
2.210482640E0,-1.052231342E-2
2.218386692E0,-5.631767679E-3
2.226321263E0,-5.686618853E-3
2.234255833E0,-3.408960998E-3
2.242190403E0,-5.698548164E-3
2.250094456E0,-8.056653664E-3
2.258029026E0,-1.028837264E-2
2.265994114E0,-7.826978341E-3
2.273928685E0,-1.017390937E-2
2.281863255E0,-1.018170081E-2
2.289797825E0,-1.479354687E-2
2.297732396E0,-5.216338672E-3
2.305666966E0,-7.619817741E-3
2.313601536E0,-1.488361508E-2
2.321536106E0,-5.169329233E-4
2.329440159E0,-2.983154729E-3
2.337374730E0,-2.983758226E-3
2.345309300E0,-5.364242941E-3
2.353243870E0,-5.307146814E-3
2.361208958E0,-7.525885943E-3
2.369143528E0,4.434214439E-3
2.377078099E0,-9.797647595E-3
2.385012669E0,-5.051095970E-3
2.392947239E0,-2.766969148E-3
2.400881810E0,-1.234377548E-2
2.408785862E0,-3.298907541E-4
2.416720433E0,-9.757500142E-3
2.424655003E0,-1.220280584E-2
2.432620091E0,-2.736114897E-3
2.440554661E0,-5.160160363E-3
2.448489231E0,-9.913011454E-3
2.456423802E0,-1.226059161E-2
2.464358372E0,-1.233810838E-2
2.472292942E0,1.976413652E-3
2.480227513E0,-1.473090611E-2
2.488162083E0,2.028096002E-3
2.496096653E0,-7.523092907E-3
2.504031224E0,-4.216413945E-4
2.511965794E0,-7.604246493E-3
2.519900364E0,-5.234204233E-3
2.527804417E0,-2.840002533E-3
2.535738987E0,-1.697831228E-2
2.543643040E0,-2.654749900E-3
2.551577610E0,-2.737640869E-3
2.559512181E0,-7.576784119E-3
2.567477269E0,-1.227901597E-2
2.575411839E0,2.121481113E-3
2.583346409E0,-7.305206265E-3
2.591280980E0,-1.441986673E-2
2.599215550E0,-1.429484971E-2
2.607150120E0,-1.193702593E-2
2.615084690E0,-9.427074343E-3
2.623019261E0,-1.652070694E-2
2.630953831E0,-6.926642731E-3
2.638888401E0,-6.951593794E-3
2.646822972E0,2.302685753E-4
2.654757542E0,-4.505839664E-3
2.662692112E0,-9.353721514E-3
2.670626683E0,-2.248393837E-3
2.678591771E0,4.913643468E-3
2.686526341E0,-9.410127997E-3
2.694460911E0,-2.267740667E-3
2.702395481E0,-7.056144066E-3
2.710330052E0,-9.378671646E-3
2.718264622E0,-4.631551914E-3
2.726168675E0,1.150490716E-4
2.734103245E0,-1.415687799E-2
2.742037815E0,1.256470568E-4
2.749911351E0,1.154839993E-7
2.757845921E0,4.870853852E-3
2.765749974E0,-9.471820667E-3
2.773684544E0,-1.190934703E-2
2.781588597E0,-4.750092514E-3
2.789523167E0,-1.893354207E-2
2.797457737E0,-2.249727957E-3
2.805361790E0,-7.063458674E-3
2.813296360E0,4.907149822E-3
2.821230931E0,-9.384837002E-3
2.829134983E0,-1.172541827E-2
2.837069554E0,-4.564809613E-3
2.845004124E0,2.651435323E-3
2.852969212E0,-6.942849141E-3
2.860903782E0,-4.455797840E-3
2.868838353E0,-4.353249446E-3
2.876772923E0,-6.851947401E-3
2.884707493E0,-6.934837438E-3
2.892642063E0,-4.530626349E-3
2.900576634E0,-7.021368481E-3
2.908480687E0,-1.652226038E-2
2.916415257E0,-9.256517515E-3
2.924319310E0,-6.804805249E-3
2.932223362E0,-1.157330722E-2
2.940157933E0,-1.950148959E-3
2.948092503E0,-1.149426773E-2
2.956057591E0,-1.952768769E-3
2.963992161E0,-1.613546163E-2
2.971926731E0,-1.377143525E-2
2.979861302E0,-1.877815463E-3
2.987826390E0,-1.913606189E-3
2.995760960E0,-6.594888866E-3
3.003695530E0,-6.606024690E-3
3.011630101E0,5.349321291E-4
3.019564671E0,-9.044685401E-3
3.027499241E0,-4.422901198E-3
3.035433812E0,-1.864657551E-2
3.043337864E0,-4.224042874E-3
3.051272435E0,-8.984502405E-3
3.059207005E0,6.339550018E-4
3.067172093E0,-4.105870612E-3
3.075106663E0,-1.141715609E-2
3.083041233E0,-9.022953920E-3
3.090975804E0,-1.622788422E-2
3.098910374E0,-8.964908309E-3
3.106844944E0,-9.028703906E-3
3.114779515E0,-8.998537436E-3
3.122683567E0,-4.126834683E-3
3.130618138E0,-1.733044628E-3
3.138583226E0,-1.733249053E-3
3.146517796E0,-8.860038593E-3
3.154452366E0,-1.114669070E-2
3.162386937E0,-8.775188588E-3
3.170321507E0,7.980056107E-4
3.178256077E0,-3.936045337E-3
3.186190647E0,-6.391615607E-3
3.194125218E0,6.638788618E-4
3.202029271E0,-1.845328603E-3
3.209963841E0,5.486672744E-4
3.217867894E0,-1.865207404E-2
3.225832981E0,-6.698682439E-3
3.233767552E0,-6.637799088E-3
3.241702122E0,3.021895885E-3
3.249636692E0,-1.121242810E-2
3.257571263E0,-1.103879046E-2
3.265444798E0,-8.620046079E-3
3.273379368E0,-1.389297191E-3
3.281313938E0,-1.509723254E-3
3.289248509E0,-1.117667183E-2
3.297213597E0,-4.024105612E-3
3.305087132E0,-6.459494587E-3
3.313021702E0,-1.130473334E-2
3.320986790E0,1.257628389E-2
3.328921360E0,-1.631076448E-2
3.336855931E0,-1.980602741E-3
3.344790501E0,-4.487971775E-3
3.352725071E0,-2.170676831E-3
3.360659642E0,-2.205834724E-3
3.368594212E0,-9.388439357E-3
3.376559300E0,1.467037946E-4
3.384493870E0,-1.650065370E-2
3.392428440E0,-9.455095045E-3
3.400332493E0,-9.456370026E-3
3.408267063E0,-4.642684478E-3
3.416201634E0,1.045931131E-4
3.424136204E0,-2.197854687E-3
3.432070774E0,-9.462537244E-3
3.439974827E0,-7.001900580E-3
3.447878880E0,-4.565788433E-3
3.455782933E0,-6.982399616E-3
3.463717503E0,-1.165965758E-2
3.471652073E0,-9.371276945E-3
3.479586644E0,-6.920086686E-3
3.487551731E0,9.715743363E-5
3.495486302E0,-1.417513844E-2
3.503420872E0,-9.247204289E-3
3.511355442E0,-6.880988367E-3
3.519290013E0,3.851321526E-4
3.527224583E0,-1.643064246E-2
3.535159153E0,-6.788496859E-3
3.543063206E0,-6.806748454E-3
3.550997776E0,-2.093822695E-3
3.558901829E0,-4.446371458E-3
3.566836399E0,-2.087790519E-3
3.574770970E0,-2.351091430E-2
3.582675022E0,-2.104300261E-2
3.590609593E0,-1.614728943E-2
3.598574681E0,-1.819160767E-3
3.606509251E0,2.959803212E-3
3.614443821E0,-6.603571121E-3
3.622378392E0,-1.147152111E-2
3.630312962E0,-9.077317081E-3
3.638217015E0,-1.380912773E-2
3.646151585E0,-8.979439735E-3
3.654086155E0,-6.608087569E-3
3.661990208E0,-4.363988992E-3
3.669924778E0,-6.840441842E-3
3.677859349E0,2.771716099E-3
3.685793919E0,-1.396042109E-2
3.693759007E0,-1.382632460E-2
3.701693577E0,4.956438206E-4
3.709628147E0,4.960643128E-4
3.717562718E0,-1.390324719E-2
3.725497288E0,5.277842283E-3
3.733431858E0,-1.382246614E-2
3.741366429E0,-1.143401489E-2
3.749300999E0,-4.168421961E-3
3.757235569E0,-6.615328137E-3
3.765170140E0,5.672769621E-4
3.773104710E0,-6.503025535E-3
3.781008763E0,-1.364068035E-2
3.788943333E0,-4.021960311E-3
3.796908421E0,-1.600602828E-2
3.804842991E0,7.122033276E-4
3.812808079E0,-1.759974752E-3
3.820742649E0,-1.127674989E-2
3.828677220E0,6.946758367E-4
3.836611790E0,-9.027542546E-3
3.844546360E0,5.059652030E-4
3.852480931E0,-9.070840664E-3
3.860384983E0,-9.090255946E-3
3.868319554E0,-6.629259326E-3
3.876223606E0,-9.029846638E-3
3.884158177E0,-1.924259588E-3
3.892123265E0,-4.470732994E-3
3.899996800E0,-2.075687516E-3
3.907931370E0,-6.883905269E-3
3.915865940E0,-1.647843793E-2
3.923831028E0,-9.233541787E-3
3.931765599E0,-6.891683675E-3
3.939700169E0,-6.960175000E-3
3.947634739E0,-1.174924336E-2
3.955569310E0,-6.934795063E-3
3.963503880E0,-6.976239383E-3
3.971438450E0,-9.464772418E-3
3.979342503E0,-7.179905195E-3
3.987277073E0,-4.859060980E-3
3.995211644E0,-7.237440441E-3
4.003176731E0,-9.570264257E-3
4.011111302E0,-1.186591759E-2
4.019045872E0,-2.443108708E-3
4.026980442E0,-7.273006719E-3
4.034884495E0,-1.731221564E-4
4.042819065E0,-1.210631803E-2
4.050723118E0,-1.448982581E-2
4.058657688E0,-5.018113181E-3
4.066592259E0,-7.288462017E-3
4.074526829E0,-1.202445664E-2
4.082491917E0,4.734952468E-3
4.090426487E0,-4.924952984E-3
4.098361058E0,-2.566121519E-3
4.106295628E0,-1.690939441E-2
4.114199681E0,-9.756585583E-3
4.122134251E0,-1.203695685E-2
4.130068821E0,-7.263440173E-3
4.137972874E0,-1.422770508E-2
4.145907444E0,9.784461930E-3
4.153872532E0,3.126819059E-2
4.161807103E0,-1.684019715E-2
4.169741673E0,-1.914269663E-2
4.177676243E0,-9.544657543E-3
4.185610813E0,-4.756255075E-3
4.193514866E0,-1.428442635E-2
4.201449437E0,-9.346395731E-3
4.209384007E0,-9.281779639E-3
4.217318577E0,-9.339807555E-3
4.225222630E0,-2.108932007E-3
4.233157200E0,-9.332822636E-3
4.241122288E0,-4.488904960E-3
4.249056858E0,-9.442236274E-3
4.256991429E0,-9.469242766E-3
4.264925999E0,2.510007471E-5
4.272830052E0,-1.187258773E-2
4.280764622E0,-4.648487084E-3
4.288699192E0,4.946400411E-3
4.296664280E0,-2.277594060E-3
4.304598851E0,-9.426951408E-3
4.312533421E0,-2.237848006E-3
4.320467991E0,-6.959126331E-3
4.328402562E0,-9.410469793E-3
4.336276097E0,-7.077991031E-3
4.344210667E0,-2.321726643E-3
4.352175755E0,-2.404828090E-3
4.360110325E0,-7.175519131E-3
4.368044896E0,-9.563055821E-3
4.375979466E0,-9.585640393E-3
4.383914036E0,-1.188200433E-2
4.391818089E0,-9.498262778E-3
4.399752659E0,-1.424427330E-2
4.407687230E0,-9.443654679E-3
4.415591282E0,-7.030107081E-3
4.423525853E0,2.506000455E-3
4.431490940E0,-9.509552270E-3
4.439425511E0,-9.402563795E-3
4.447360081E0,-1.180138253E-2
4.455294651E0,-7.179179695E-3
4.463229222E0,-2.426201943E-3
4.471133274E0,-1.188076101E-2
4.479067845E0,-7.033698261E-3
4.487032933E0,-9.489914402E-3
4.494967503E0,-9.417956695E-3
4.502902073E0,-4.712336231E-3
4.510806126E0,-2.313300967E-3
4.518740696E0,-4.624075722E-3
4.526675267E0,-4.491636995E-3
4.534609837E0,7.479804102E-3
4.542544407E0,-4.353160970E-3
4.550478978E0,-2.104206569E-2
4.558413548E0,-4.138426390E-3
4.566378636E0,-1.363292243E-2
4.574313206E0,-3.922430798E-3
4.582247776E0,-6.305444520E-3
4.590182347E0,-8.698786609E-3
4.598116917E0,-1.598641276E-3
4.606051487E0,-8.833799511E-3
4.613955540E0,-8.759717457E-3
4.621890110E0,-4.046369344E-3
4.629855198E0,3.169407137E-3
4.637789769E0,-6.385990884E-3
4.645724339E0,-4.062804393E-3
4.653658909E0,-8.784333244E-3
4.661593480E0,-1.590842009E-2
4.669497532E0,8.066152222E-4
4.677401585E0,5.636517890E-3
4.685336155E0,-1.107731462E-2
4.693240208E0,-1.346359402E-2
4.701174778E0,-3.797380254E-3
4.709109349E0,-3.830412403E-3
4.717074437E0,-6.131081376E-3
4.725009007E0,-1.085105911E-2
4.732943577E0,-8.254634216E-3
4.740878147E0,-5.843517371E-3
4.748782200E0,-5.951731931E-3
4.756716771E0,6.000210065E-3
4.764620823E0,-8.489811793E-3
4.772585911E0,-1.080975309E-2
4.780520481E0,-6.045378279E-3
4.788455052E0,-1.257189550E-3
4.796389622E0,-1.088555995E-2
4.804324192E0,-1.308538020E-3
4.812228245E0,-8.759056218E-3
4.820132298E0,-6.364854518E-3
4.828066868E0,-1.572122332E-3
4.836031956E0,-8.738315664E-3
4.843966526E0,-8.631607518E-3
4.851901097E0,-1.102580875E-2
4.859835667E0,9.869108908E-4
4.867770237E0,-3.842723556E-3
4.875704808E0,-3.967056051E-3
4.883639378E0,-6.217245013E-3
4.891543431E0,-1.096509490E-2
4.899478001E0,-6.175834220E-3
4.907443089E0,-1.810339093E-2
4.915377659E0,-8.472708985E-3
4.923312230E0,-3.808209207E-3
4.931246800E0,-3.718122840E-3
4.939181370E0,-8.488879539E-3
4.947085423E0,-8.380875923E-3
4.955019993E0,-3.627192229E-3
4.962954563E0,-1.309808157E-2
4.970919651E0,-8.267422207E-3
4.978854222E0,-1.084601972E-3
4.986788792E0,-8.349663578E-3
4.994723362E0,-3.552629147E-3
5.002657933E0,-8.240181953E-3
5.010592503E0,-1.013837289E-3
5.018527073E0,-8.237726986E-3
5.026461644E0,-2.015406638E-2
5.034396214E0,1.472658478E-3
5.042330784E0,-5.751606543E-3
5.050234837E0,-8.126059547E-3
5.058169407E0,-1.043101400E-2
5.066073460E0,-3.123380244E-3
5.074008030E0,-7.289620116E-4
5.081912083E0,-7.934320718E-3
5.089846653E0,-5.477414466E-3
5.097781224E0,-5.586441141E-3
5.105746312E0,-7.885679603E-3
5.113680882E0,-1.500936970E-2
5.121615452E0,-7.909868844E-3
5.129550022E0,-6.024525501E-4
5.137484593E0,-5.414668936E-3
5.145419163E0,-1.011460181E-2
5.153353733E0,4.374723881E-3
5.161288304E0,-2.918837126E-3
5.169222874E0,-5.229720846E-4
5.177157444E0,1.866132952E-3
5.185061497E0,-5.223846994E-3
5.192996067E0,-9.828034788E-3
5.200930638E0,-2.728101332E-3
5.208834690E0,-5.021080375E-3
5.216769261E0,-1.225037221E-2
5.224703831E0,-1.969086006E-4
5.232638401E0,-2.583160996E-3
5.240572972E0,-5.008345004E-3
5.248538060E0,7.087430917E-3
5.256472630E0,-9.640064090E-3
5.264407200E0,-2.250019927E-3
5.272341771E0,2.498022746E-3
5.280276341E0,-4.683713894E-3
5.288210911E0,-4.590283614E-3
5.296145481E0,-1.168715581E-2
5.304049534E0,-2.068688162E-3
5.311984105E0,-4.627596587E-3
5.319918675E0,-6.938809063E-3
5.327853245E0,-6.961867679E-3
5.335725592E0,-1.174620725E-2
5.343660163E0,2.612699755E-3
5.351594733E0,-2.299601678E-3
5.359529303E0,4.841775633E-3
5.367463874E0,-1.187833957E-2
5.375398444E0,-7.028322201E-3
5.383302497E0,-1.182070188E-2
5.391237067E0,4.965911619E-3
5.399171637E0,-2.047285438E-3
5.407075690E0,9.772025049E-3
5.414979743E0,-6.971839350E-3
5.422883796E0,-4.560987465E-3
5.430818366E0,-9.432177991E-3
5.438783454E0,1.441920176E-4
5.446718024E0,-2.208406571E-3
5.454652594E0,-4.643675871E-3
5.462587165E0,-1.186795533E-2
5.470521735E0,-6.206566468E-5
5.478456305E0,-4.882247653E-3
5.486390876E0,-7.469695993E-3
5.494325446E0,-1.932860911E-2
5.502229499E0,-1.442145929E-2
5.510164069E0,-2.443374135E-3
5.518098639E0,-7.101800293E-6
5.526063727E0,-7.372828200E-3
5.533998298E0,-1.204760652E-2
5.541932868E0,-4.865001887E-3
5.549867438E0,-4.803359043E-3
5.557802008E0,-5.574757233E-5
5.565706061E0,-7.113099098E-3
5.573640632E0,-1.185760833E-2
5.581544684E0,7.254779804E-3
5.589479255E0,-2.322467044E-3
5.597413825E0,-2.172382548E-3
5.605378913E0,-9.354988113E-3
5.613313483E0,-6.906961557E-3
5.621248053E0,-6.934572011E-3
5.629182624E0,-1.636632159E-2
5.637117194E0,5.204418208E-3
5.645051764E0,-9.130818769E-3
5.652986335E0,-6.694673561E-3
5.660890387E0,4.454241134E-4
5.668824958E0,-9.097659029E-3
5.676759528E0,-4.268315155E-3
5.684663581E0,-1.137018483E-2
5.692598151E0,-4.129735287E-3
5.700532721E0,1.008867379E-2
5.708467292E0,-6.607311778E-3
5.716401862E0,-1.608256623E-2
5.724366950E0,-1.139073074E-2
5.732301520E0,7.722252980E-3
5.740236090E0,-1.147468667E-2
5.748170661E0,-6.583919749E-3
5.756105231E0,-1.795297023E-3
5.764009284E0,5.224756896E-4
5.771943854E0,-1.384273451E-2
5.779878424E0,-1.151803695E-2
5.787812995E0,-4.168991931E-3
5.795778083E0,2.972829156E-3
5.803651618E0,-4.292541184E-3
5.811555671E0,-1.974702347E-3
5.819459723E0,-4.357668571E-3
5.827394294E0,-4.315942992E-3
5.835298346E0,-2.040313557E-3
5.843202399E0,-6.894615479E-3
5.851136969E0,-4.526823759E-3
5.859071540E0,5.050428677E-3
5.867006110E0,2.483799122E-3
5.874971198E0,-7.176118437E-3
5.882905768E0,-7.259326987E-3
5.890840339E0,-4.806372337E-3
5.898774909E0,-4.723707214E-3
5.906709479E0,-9.523248300E-3
5.914644049E0,-4.692730960E-3
5.922578620E0,-7.179700769E-3
5.930513190E0,4.709182307E-3
5.938447760E0,-7.871352136E-5
5.946382331E0,2.186568920E-3
5.954316901E0,-2.601610497E-3
5.962251471E0,-5.037191790E-3
5.970186042E0,-4.538251087E-4
5.978120612E0,-1.008944027E-2
5.986055182E0,-2.814501990E-3
5.993989753E0,4.397947341E-3
6.001893805E0,-2.700777259E-3
6.009828376E0,-3.065741621E-4
6.017732428E0,-9.728761390E-3
6.025666999E0,2.242247108E-3
6.033601569E0,-1.436917391E-2
6.041566657E0,-7.310710382E-3
6.049501227E0,-7.378494367E-3
6.057435798E0,7.094904315E-3
6.065370368E0,-1.197823323E-2
6.073304938E0,-2.359759528E-3
6.081239508E0,-7.173470687E-3
6.089174079E0,7.315814495E-3
6.097078132E0,-6.999113131E-3
6.105012702E0,-1.179438084E-2
6.112947272E0,-4.652773961E-3
6.120881842E0,-1.190926693E-2
6.128816413E0,-1.891073957E-2
6.136750983E0,2.637743950E-3
6.144685553E0,-4.575379193E-3
6.152620124E0,-2.258185763E-3
6.160524176E0,1.787333749E-4
6.168489264E0,5.509844050E-5
6.176423835E0,-2.766354010E-5
6.184388923E0,1.193379797E-2
6.192323493E0,-1.197234914E-2
6.200258063E0,-7.267152891E-3
6.208192633E0,2.261063550E-3
6.216096686E0,-7.376800291E-3
6.224000739E0,-7.458265405E-3
6.231935309E0,-9.833944961E-3
6.239900397E0,-1.211259887E-2
6.247834967E0,-7.365040015E-3
6.255739020E0,-1.212224737E-2
6.263673590E0,-1.442560181E-2
6.271608161E0,-4.890237935E-3
6.279542731E0,-1.432169229E-4
6.287477301E0,-4.878926091E-3
6.295381354E0,-4.878926091E-3
6.303346442E0,-4.987031221E-3
6.311281012E0,-5.027810112E-3
6.319185065E0,-2.628677059E-3
6.327150153E0,-2.344753593E-4
6.335054206E0,-1.515862532E-4
6.342988776E0,4.720371682E-3
6.350953864E0,-4.923567642E-3
6.358888434E0,-7.316876668E-3
6.366823005E0,-1.748935319E-4
6.374757575E0,-1.440981776E-2
6.382692145E0,-4.791566171E-3
6.390626715E0,2.432927024E-3
6.398530768E0,-7.227532100E-3
6.406465339E0,-2.479972783E-3
6.414369391E0,-4.929228220E-3
6.422303962E0,-9.765375406E-3
6.430208014E0,4.683389794E-3
6.438142585E0,-4.967768211E-3
6.446077155E0,-5.484465510E-5
6.454011725E0,-1.200217102E-2
6.461976813E0,-2.425364219E-3
6.469911383E0,-9.698035195E-3
6.477845954E0,-2.515206113E-3
6.485780524E0,-4.935904872E-3
6.493715094E0,-2.582481131E-3
6.501649665E0,-7.348166313E-3
6.509584235E0,-2.070064656E-4
6.517488288E0,-4.984498024E-3
6.525392340E0,-1.955488697E-4
6.533326911E0,-7.396603003E-3
6.541291999E0,7.092940621E-3
6.549226569E0,-2.442201599E-3
6.557161139E0,-2.858293615E-2
6.565095710E0,-7.056602277E-3
6.572999762E0,-2.347160131E-3
6.580934333E0,-4.906941671E-3
6.588868903E0,2.192996442E-3
6.596772956E0,-5.031596404E-3
6.604707526E0,4.573011305E-3
6.612611579E0,-5.032605026E-3
6.620546149E0,-1.221112348E-2
6.628511237E0,-2.586715855E-3
6.636476325E0,-1.511983573E-4
6.644410895E0,-7.457880769E-3
6.652345465E0,-1.011644397E-2
6.660280036E0,-5.783368833E-4
6.668214606E0,-6.170272827E-4
6.676118659E0,-7.729528472E-3
6.684053229E0,-5.293819588E-3
6.691987799E0,1.719156746E-3
6.699952887E0,1.756644342E-3
6.707887458E0,-1.260819659E-2
6.715822028E0,-5.454166792E-3
6.723756598E0,1.683933195E-3
6.731660651E0,-1.259740070E-2
6.739595221E0,-1.255710237E-2
6.747529792E0,-7.781378925E-3
6.755433844E0,-7.231696509E-4
6.763368415E0,-7.987486199E-3
6.771272467E0,-1.044698246E-2
6.779176520E0,-8.177556098E-3
6.787111090E0,-5.659058690E-3
6.795076178E0,-1.032466721E-2
6.803010749E0,-6.646267138E-4
6.810945319E0,-1.013434865E-2
6.818879889E0,-7.782035507E-3
6.826814460E0,-1.245139167E-2
6.834718512E0,-5.351771135E-3
6.842653083E0,-5.459623411E-3
6.850618171E0,-1.268521417E-2
6.858552741E0,-5.627166014E-3
6.866487311E0,-9.626499377E-4
6.874421882E0,-9.619803168E-4
6.882356452E0,-5.790558644E-3
6.890260505E0,-3.603578545E-3
6.898195075E0,-1.301699411E-2
6.906129645E0,-1.045762561E-3
6.914033698E0,-1.299711131E-2
6.921968268E0,-1.295793056E-2
6.929872321E0,-1.111286227E-3
6.937806891E0,-8.251721039E-3
6.945741462E0,-8.210277185E-3
6.953706549E0,-1.041640807E-2
6.961641120E0,-5.658340175E-3
6.969575690E0,-3.340484574E-3
6.977510260E0,-8.211111650E-3
6.985444831E0,-1.294930745E-2
6.993379401E0,1.498888247E-3
7.001313971E0,-5.601146258E-3
7.009218024E0,-8.077574894E-3
7.017152594E0,-7.935828529E-3
7.025087165E0,-1.033003069E-2
7.032991217E0,-3.104935866E-3
7.040925788E0,6.430527661E-3
7.048860358E0,1.559233293E-3
7.056794928E0,-1.041945815E-2
7.064760016E0,-5.739618093E-3
7.072633551E0,-5.864430685E-3
7.080568122E0,-1.117153559E-3
7.088472174E0,-1.289950870E-2
7.096406745E0,-3.312406130E-3
7.104341315E0,-9.983656928E-4
7.112245368E0,1.475249417E-3
7.120179938E0,-1.515999343E-2
7.128114508E0,-5.542181898E-3
7.136049079E0,-8.019272238E-3
7.143983649E0,-1.285631675E-2
7.151948737E0,-5.714655388E-3
7.159883307E0,6.191758439E-3
7.167817878E0,-1.534449495E-2
7.175752448E0,-5.792645738E-3
7.183687018E0,5.971140694E-3
7.191591071E0,-1.076001395E-2
7.199525641E0,-3.691654652E-3
7.207429694E0,-1.091422141E-2
7.215364264E0,-6.084094290E-3
7.223268317E0,-1.319963299E-2
7.231202887E0,-1.797129400E-2
7.239137458E0,-1.211882103E-3
7.247041510E0,-1.170277130E-3
7.254976081E0,-1.128554810E-3
7.262910651E0,-1.055498421E-2
7.270875739E0,-1.286743768E-2
7.278810309E0,-1.019846182E-3
7.286744880E0,-5.829050671E-3
7.294679450E0,1.311670989E-3
7.302614020E0,-8.196782321E-3
7.310548590E0,-1.060259994E-2
7.318483161E0,-3.419994842E-3
7.326387214E0,-8.149959147E-3
7.334321784E0,-1.055633463E-2
7.342286872E0,1.535849646E-3
7.350160407E0,-5.812949967E-3
7.358094977E0,-1.061040442E-2
7.366029548E0,-5.780336447E-3
7.373964118E0,-8.032260463E-3
7.381898688E0,-5.513689481E-3
7.389863776E0,-5.539698526E-3
7.397798346E0,-1.497698575E-2
7.405732917E0,-5.441183690E-3
7.413667487E0,3.909836523E-3
7.421602057E0,-3.396881279E-3
7.429536628E0,-3.522356972E-3
7.437471198E0,-3.521699458E-3
7.445375251E0,-5.874017719E-3
7.453309821E0,-3.562603146E-3
7.461244391E0,-3.677883185E-3
7.469148444E0,-1.197556965E-3
7.477083014E0,-1.539524831E-2
7.485048102E0,-1.527494565E-2
7.492982673E0,3.754554316E-3
7.500917243E0,-8.200861514E-3
7.508851813E0,-1.299532875E-2
7.516786383E0,-1.065933611E-2
7.524690436E0,-5.870494060E-3
7.532625007E0,1.184523571E-3
7.540559577E0,-3.716278821E-3
7.548494147E0,-6.178972777E-3
7.556428717E0,-3.737032413E-3
7.564332770E0,-8.536076173E-3
7.572267340E0,-8.411522955E-3
7.580201911E0,-5.974784028E-3
7.588105964E0,-5.869527813E-3
7.596040534E0,-8.280137554E-3
7.603975104E0,3.648771904E-3
7.611940192E0,-1.098405570E-3
7.619874762E0,-8.304842748E-3
7.627809333E0,-5.806406029E-3
7.635743903E0,-5.805756897E-3
7.643647956E0,-1.096601132E-3
7.651582526E0,1.339100767E-3
7.659517096E0,-5.801027175E-3
7.667451667E0,-3.531318624E-3
7.675416755E0,-8.319722489E-3
7.683351325E0,-5.911109969E-3
7.691285895E0,-8.323696442E-3
7.699220465E0,-1.553143561E-2
7.707155036E0,-8.540184237E-3
7.715089606E0,-6.051132455E-3
7.722993659E0,-1.067439653E-2
7.730928229E0,6.168014836E-3
7.738862799E0,-1.014805865E-3
7.746797370E0,1.334043220E-3
7.754762458E0,-9.778025560E-4
7.762697028E0,-9.338078089E-4
7.770631598E0,-8.092846721E-3
7.778566169E0,-3.220907412E-3
7.786500739E0,-1.516635157E-2
7.794435309E0,1.676059328E-3
7.802339362E0,-5.536081735E-3
7.810273932E0,-1.028466597E-2
7.818208503E0,1.720915083E-3
7.826173590E0,-1.255730353E-2
7.834108161E0,-1.018813811E-2
7.842042731E0,-5.459634122E-3
7.849977301E0,1.130301878E-2
7.857911872E0,-7.748431992E-3
7.865846442E0,-1.266108267E-2
7.873781012E0,-1.261363085E-2
7.881715583E0,-6.838506088E-4
7.889650153E0,-1.982149482E-2
7.897584723E0,-1.025629416E-2
7.905488776E0,-5.455298815E-3
7.913423346E0,-1.976535097E-2
7.921357917E0,-6.509651430E-4
7.929323005E0,-5.417804699E-3
7.937257575E0,-6.706290878E-4
7.945192145E0,1.599195413E-3
7.953126715E0,-5.651465617E-3
7.961061286E0,-8.150226437E-3
7.968995856E0,3.821646795E-3
7.976930426E0,-9.667566046E-4
7.984834479E0,-1.767267846E-2
7.992769049E0,-1.036215574E-3
8.000703620E0,-8.059045300E-3
8.008638190E0,-9.181005880E-4
8.016572760E0,-1.526076347E-2
8.024507331E0,1.617953181E-3
8.032441901E0,-1.986944303E-2
8.040376471E0,-7.920096628E-3
8.048311042E0,-7.785023190E-4
8.056245612E0,-3.158770967E-3
8.064210700E0,-7.968453690E-3
8.072145270E0,-5.595501512E-3
8.080079840E0,-3.283753060E-3
8.088014411E0,3.899068106E-3
8.095948981E0,-1.038987469E-2
8.103883551E0,-5.684677977E-3
8.111818122E0,-1.273518987E-2
8.119722174E0,-1.269257441E-2
8.127656745E0,4.025554750E-3
8.135591315E0,-7.878501900E-3
8.143495368E0,-3.244554158E-3
8.151429938E0,-1.520767994E-2
8.159364508E0,-1.034385059E-2
8.167299079E0,-5.540866870E-3
8.175233649E0,-1.972205564E-2
8.183137702E0,-7.723550778E-3
8.191072272E0,-5.411170889E-3
8.199006842E0,-3.048828337E-3
8.206910895E0,-3.048396669E-3
8.214845465E0,-7.877440192E-3
8.222749518E0,-3.120148554E-3
8.230684089E0,-1.506818272E-2
8.238618659E0,-2.966929693E-3
8.246583747E0,-1.253620908E-2
8.254518317E0,-1.489950903E-2
8.262452887E0,-5.322702695E-3
8.270387458E0,-5.505125504E-3
8.278322028E0,-1.497044042E-2
8.286256598E0,-7.682288997E-3
8.294191169E0,-2.852283418E-3
8.302095221E0,-7.659363560E-3
8.310029792E0,-5.265161861E-3
8.317964362E0,1.789163332E-3
8.325929450E0,-1.483011432E-2
8.333864020E0,-7.589993067E-3
8.341737555E0,-3.241808154E-4
8.349672126E0,-2.718168776E-3
8.357606696E0,-4.946377128E-3
8.365571784E0,4.492885433E-3
8.373506354E0,-5.083705299E-3
8.381440924E0,-1.460976154E-2
8.389375495E0,-1.233548112E-2
8.397279548E0,-9.879780933E-3
8.405214118E0,-9.880625643E-3
8.413148688E0,-2.776145469E-3
8.421083258E0,-1.005684678E-2
8.429017829E0,-4.800399765E-4
8.436952399E0,-2.998359501E-3
8.444886969E0,-7.766567636E-3
8.452821540E0,-5.479317624E-3
8.460725592E0,4.213752225E-3
8.468660163E0,1.696125604E-3
8.476594733E0,-5.527706351E-3
8.484529303E0,1.654465217E-3
8.492463874E0,-1.026451588E-2
8.500398444E0,-6.463243626E-4
8.508333014E0,-1.018463075E-2
8.516267585E0,4.181233700E-3
8.524232673E0,-5.354347173E-3
8.532167243E0,-3.002245445E-3
8.540101813E0,-7.730665151E-3
8.548036383E0,-5.042250268E-4
8.555940436E0,-5.398401525E-3
8.563875007E0,-1.008240879E-2
8.571809577E0,-1.009337138E-2
8.579774665E0,-7.803590503E-3
8.587709235E0,-3.097757231E-3
8.595643805E0,-7.863334380E-3
8.603578376E0,-3.192095086E-3
8.611512946E0,-1.981412247E-2
8.619416999E0,-3.089884762E-3
8.627351569E0,-1.025481150E-2
8.635316657E0,-3.155538812E-3
8.643251227E0,-5.550403148E-3
8.651185798E0,-8.032238111E-4
8.659120368E0,-1.035940275E-2
8.667054938E0,-8.023677394E-3
8.674989508E0,3.947994672E-3
8.682924079E0,-3.234388772E-3
8.690858649E0,-1.039787102E-2
8.698732184E0,-5.589933135E-3
8.706697272E0,-1.277579367E-2
8.714631842E0,-3.148742486E-3
8.722596930E0,-3.148742486E-3
8.730531501E0,-8.061478846E-3
8.738466071E0,3.899590578E-3
8.746400641E0,-5.741916131E-3
8.754304694E0,3.876334988E-3
8.762239264E0,-1.040262450E-2
8.770173835E0,6.372577045E-3
8.778108405E0,-1.766283810E-2
8.786073493E0,-3.290688153E-3
8.794008063E0,-3.249468748E-3
8.801942633E0,-1.019469462E-3
8.809877204E0,-5.890985951E-3
8.817811774E0,3.810858354E-3
8.825746344E0,-1.101845875E-3
8.833680915E0,-5.765693262E-3
8.841615485E0,3.894899972E-3
8.849550055E0,-3.370912280E-3
8.857454108E0,1.376113389E-3
8.865388678E0,-3.576569259E-3
8.873353766E0,-1.549760625E-2
8.881288337E0,-1.544526499E-2
8.889222907E0,-1.074097771E-2
8.897157477E0,-3.558823373E-3
8.905092048E0,-5.933978595E-3
8.913026618E0,-8.301252499E-3
8.920961188E0,-1.546707284E-2
8.928895758E0,-8.266778663E-3
8.936830329E0,-1.122393180E-3
8.944795417E0,-8.346731775E-3
8.952729987E0,-5.869866349E-3
8.960664557E0,-1.289289258E-2
8.968599128E0,-8.804402314E-4
8.976533698E0,-1.275952160E-2
8.984468268E0,-7.868278772E-3
8.992402839E0,-7.275720127E-4
9.000337409E0,-1.044603996E-2
9.008271979E0,-3.304653335E-3
9.016206549E0,-5.699082743E-3
9.024171637E0,-1.279497705E-2
9.032106208E0,-5.559705663E-3
9.040040778E0,-6.865262985E-4
9.047975348E0,-1.032387372E-2
9.055909919E0,-8.079132065E-3
9.063844489E0,-9.352155030E-4
9.071748542E0,-3.404241055E-3
9.079683112E0,-8.150904439E-3
9.087648200E0,-1.070736907E-2
9.095582770E0,-8.338090032E-3
9.103517340E0,-3.591199871E-3
9.111421393E0,-3.674546257E-3
9.119355964E0,-6.027007010E-3
9.127290534E0,-1.550326124E-2
9.135225104E0,-2.255232260E-2
9.143159674E0,2.050823905E-2
9.151094245E0,-1.293873880E-2
9.159059333E0,1.818794385E-2
9.166993903E0,-1.064218581E-2
9.174928473E0,-1.067747548E-2
9.182863044E0,-2.012621239E-2
9.190767096E0,-5.746721756E-3
9.198701667E0,-5.623321515E-3
9.206636237E0,-8.349181153E-4
9.214509772E0,-8.058826439E-3
9.222444342E0,3.742652014E-3
9.230409430E0,-1.298478059E-2
9.238344001E0,-5.677842535E-3
9.246278571E0,-8.113486692E-3
9.254213141E0,-5.677911453E-3
9.262147712E0,-1.043446641E-2
9.270051764E0,-8.545899764E-4
9.277986335E0,-1.750415750E-2
9.285920905E0,-8.023539558E-3
9.293824958E0,-8.023770526E-3
9.301759528E0,-5.568840075E-3
9.309694098E0,-1.279618591E-2
9.317659186E0,-1.284226030E-2
9.325593757E0,-1.280176360E-2
9.333528327E0,-7.994243875E-3
9.341462897E0,3.935251385E-3
9.349366950E0,-8.943672292E-4
9.357301520E0,-7.993716747E-3
9.365236090E0,-5.550811067E-3
9.373170661E0,-3.073171712E-3
9.381135749E0,-1.038823277E-2
9.389070319E0,-8.116550744E-4
9.397004889E0,-8.118594065E-3
9.404939460E0,-8.101468906E-3
9.412843512E0,-5.706344265E-3
9.420778083E0,-7.976461202E-3
9.428712653E0,-3.187595401E-3
9.436647223E0,-3.095154185E-3
9.444612311E0,-1.021078043E-2
9.452516364E0,-1.040053740E-2
9.460481452E0,-3.175958991E-3
9.468416022E0,-1.521666162E-2
9.476350592E0,-1.040108595E-2
9.484285163E0,-3.134669736E-3
9.492189215E0,-8.657420985E-4
9.500123786E0,-9.067975916E-4
9.508058356E0,-1.288616844E-2
9.515992926E0,-1.050463598E-2
9.523958014E0,-8.234767243E-3
9.531892585E0,-5.840798374E-3
9.539827155E0,-1.304814033E-2
9.547731208E0,-8.239891380E-3
9.555635260E0,-3.534695134E-3
9.563600348E0,-8.364453912E-3
9.571565436E0,-3.566955216E-3
9.579500007E0,-5.961388815E-3
9.587434577E0,-1.084288303E-2
9.595369147E0,-1.085170545E-2
9.603303717E0,-3.752221819E-3
9.611238288E0,-1.441227738E-3
9.619172858E0,-1.564619131E-3
9.627076911E0,-8.776612580E-3
9.635011481E0,-1.110399701E-2
9.642946051E0,-6.273990963E-3
9.650850104E0,-8.585454896E-3
9.658784674E0,-8.633673191E-3
9.666719245E0,-8.574707434E-3
9.674684333E0,-1.085804962E-2
9.682618903E0,-5.945078097E-3
9.690553473E0,-6.070125382E-3
9.698488044E0,-5.987788085E-3
9.706392096E0,-1.199618913E-3
9.714326667E0,-1.067228708E-2
9.722230719E0,-8.318828419E-3
9.730165290E0,-1.306892186E-2
9.738130378E0,-1.060349029E-2
9.746064948E0,-1.053733099E-2
9.753999518E0,-5.873493385E-3
9.761934089E0,-1.306018699E-2
9.769868659E0,1.220530830E-3
9.777803229E0,-1.314467937E-2
9.785737799E0,-1.079924405E-2
9.793672370E0,-1.315011829E-2
9.801606940E0,-1.319961250E-2
9.809510993E0,-1.328457333E-2
9.817445563E0,-1.086414605E-2
9.825410651E0,-6.034534425E-3
9.833345221E0,-1.204686705E-3
9.841279792E0,1.230723225E-3
9.849214362E0,-2.020844817E-2
9.857148932E0,-5.911154673E-3
9.865114020E0,-1.555470843E-2
9.873079108E0,-1.328214444E-2
9.881013678E0,-6.118961144E-3
9.888948249E0,-1.329697762E-2
9.896882819E0,-8.577432483E-3
9.904786872E0,-1.110541075E-2
9.912721442E0,-6.301663350E-3
9.920656012E0,-8.862280287E-3
9.928590583E0,8.788052946E-4
9.936525153E0,-6.345083006E-3
9.944459723E0,-1.344029512E-2
9.952424811E0,-6.339861546E-3
9.960359382E0,-1.634824555E-3
9.968293952E0,-1.635305583E-3
9.976228522E0,-6.424427032E-3
9.984163092E0,-8.754254319E-3
9.992097663E0,-1.583632082E-2
1.000003223E1,-6.093737669E-3
1.000793629E1,-8.379773237E-3
1.001590137E1,3.458310850E-3
1.002383594E1,-6.159859244E-3
1.003180103E1,-1.413623337E-3
1.003973560E1,-1.371938735E-3
1.004767017E1,-1.413541846E-3
1.005560474E1,-8.596146479E-3
1.006350880E1,-1.342640072E-2
1.007144337E1,-1.104088221E-2
1.007937794E1,9.301262908E-4
1.008731251E1,-8.730450645E-3
1.009524708E1,-8.740403689E-3
1.010315113E1,-3.785585985E-3
1.011108570E1,1.168198418E-3
1.011905079E1,3.470598254E-3
1.012698536E1,-1.086051203E-2
1.013491993E1,5.692233797E-3
1.014285450E1,-6.320704240E-3
1.015078907E1,-1.583835855E-2
1.015872364E1,-6.344682071E-3
1.016662769E1,7.535051554E-4
1.017459278E1,-6.511910353E-3
1.018252735E1,-8.845277131E-3
1.019049244E1,-6.409148686E-3
1.019842701E1,-1.584414765E-2
1.020636158E1,-1.090195589E-2
1.021429615E1,-1.087535359E-2
1.022220020E1,-1.381194219E-3
1.023013477E1,5.843095016E-3
1.023809986E1,-3.857801203E-3
1.024600391E1,-1.343215443E-2
1.025393848E1,-4.019523039E-3
1.026187305E1,-1.367287710E-2
1.026980762E1,-1.577531919E-3
1.027774219E1,3.127664793E-3
1.028570728E1,-8.737301454E-3
1.029367237E1,-6.328492891E-3
1.030160694E1,-8.722694591E-3
1.030954151E1,-1.539606135E-3
1.031747608E1,-8.830298670E-3
1.032544117E1,-6.394493394E-3
1.033337574E1,-4.041576758E-3
1.034131031E1,-1.370890811E-2
1.034924488E1,-1.820789184E-3
1.035717945E1,6.146165542E-4
1.036505298E1,-4.131700844E-3
1.037298756E1,-1.616605185E-2
1.038092213E1,-1.368917339E-2
1.038888721E1,-8.926196024E-3
1.039682178E1,-1.605380699E-2
1.040475635E1,-1.854528207E-3
1.041269092E1,-1.813244540E-3
1.042062550E1,-8.807420731E-3
1.042856007E1,-1.625056379E-3
1.043649464E1,3.205030691E-3
1.044439869E1,1.508783270E-2
1.045233326E1,-1.852723025E-2
1.046026783E1,-4.114057403E-3
1.046823292E1,-6.622225046E-3
1.047616749E1,-6.704871077E-3
1.048410206E1,-9.264520369E-3
1.049203663E1,-2.122719306E-3
1.049997120E1,-7.035456132E-3
1.050790577E1,-4.559325054E-3
1.051587086E1,-4.517482128E-3
1.052383594E1,-9.321063757E-3
1.053177051E1,-6.949445233E-3
1.053970509E1,5.021562800E-3
1.054763966E1,-9.400172159E-3
1.055557422E1,-4.694419447E-3
1.056350880E1,-7.130704354E-3
1.057144337E1,-1.660815999E-2
1.057937794E1,-6.907734089E-3
1.058731251E1,3.160764463E-4
1.059524708E1,-9.275246412E-3
1.060315113E1,-9.291989729E-3
1.061105518E1,-1.404632442E-2
1.061895924E1,-9.281584993E-3
1.062686329E1,-1.415081136E-2
1.063479786E1,-7.092298009E-3
1.064273243E1,-9.505143389E-3
1.065069752E1,-7.193747442E-3
1.065863209E1,-9.628681466E-3
1.066656666E1,-7.316894829E-3
1.067450123E1,-7.291712798E-3
1.068243580E1,-7.319268305E-3
1.069037037E1,-7.484169211E-3
1.069827442E1,-1.468543801E-2
1.070620899E1,-9.964437224E-3
1.071414356E1,-1.002747472E-2
1.072207813E1,-9.925477207E-3
1.073001270E1,-1.478791423E-2
1.073797779E1,-1.951805688E-2
1.074591236E1,-7.613524329E-3
1.075384693E1,-3.897123970E-4
1.076178150E1,-2.859805245E-3
1.076971607E1,-1.244089846E-2
1.077762012E1,-5.299264099E-3
1.078555469E1,-1.244783588E-2
1.079345875E1,-1.958300918E-2
1.080139332E1,-5.218036473E-3
1.080932789E1,-5.258849356E-3
1.081729298E1,-1.949626766E-2
1.082522755E1,-5.089377984E-3
1.083316212E1,-9.898177348E-3
1.084106617E1,-1.241995208E-2
1.084900074E1,-2.793468535E-3
1.085690479E1,-2.834836487E-3
1.086480884E1,-7.570037618E-3
1.087274342E1,-2.186529338E-2
1.088064747E1,-2.878732048E-3
1.088858204E1,-1.003347524E-2
1.089654713E1,-7.621356286E-3
1.090448170E1,-2.824379597E-3
1.091241627E1,-2.197795361E-2
1.092032032E1,2.084402367E-3
1.092825489E1,-9.893285111E-3
1.093618946E1,-1.467443164E-2
1.094412403E1,-1.462746970E-2
1.095208912E1,-7.302610204E-3
1.096002369E1,2.232829574E-3
1.096795826E1,-9.693626314E-3
1.097586231E1,-1.213392615E-2
1.098379688E1,-7.345522754E-3
1.099173145E1,-9.798362851E-3
1.099969654E1,-1.215321478E-2
1.100763111E1,-1.199192554E-2
1.101556568E1,-7.202815264E-3
1.102350025E1,-1.450446807E-2
1.103143482E1,-1.695970446E-2
1.103936939E1,-2.677700482E-3
1.104730396E1,-2.636181191E-3
1.105520801E1,-7.493698969E-3
1.106314259E1,-2.279710025E-4
1.107107716E1,-4.974226467E-3
1.107901172E1,-9.824561886E-3
1.108697681E1,-7.416812237E-3
1.109491138E1,-7.333220448E-3
1.110284595E1,-1.922762766E-2
1.111078052E1,-2.386101522E-3
1.111871509E1,-7.174504921E-3
1.112664966E1,1.321993768E-4
1.113455372E1,-9.444374591E-3
1.114248829E1,-4.830297083E-3
1.115042286E1,-9.618700482E-3
1.115838795E1,-7.251200732E-3
1.116632252E1,-1.192926057E-2
1.117425709E1,-7.223517168E-3
1.118219166E1,-7.370505948E-3
1.119012623E1,-1.215959527E-2
1.119806080E1,-7.390405051E-3
1.120599537E1,-9.805109352E-3
1.121389942E1,-1.471965387E-2
1.122183399E1,-1.462742127E-2
1.122976856E1,-7.403836586E-3
1.123773365E1,-7.341512479E-3
1.124566822E1,-1.694013923E-2
1.125360279E1,-2.658050507E-3
1.126153736E1,-5.010574590E-3
1.126947193E1,2.130818088E-3
1.127737598E1,-2.178825624E-2
1.128531055E1,-1.214122586E-2
1.129324512E1,-2.646610606E-3
1.130117969E1,-1.002170332E-2
1.130911426E1,-1.245949790E-2
1.131704884E1,-7.694364991E-3
1.132498341E1,-1.010821015E-2
1.133288746E1,1.821122132E-3
1.134082203E1,-1.017048769E-2
1.134875660E1,-3.029095009E-3
1.135669117E1,-1.965986192E-2
1.136462574E1,-2.896108665E-3
1.137256031E1,-5.012704059E-4
1.138049488E1,-2.193642966E-2
1.138842945E1,2.005819231E-3
1.139636402E1,-2.775537316E-3
1.140432911E1,-5.128223915E-3
1.141226368E1,-9.936850518E-3
1.142019825E1,-1.471518539E-2
1.142813282E1,-7.472256664E-3
1.143606739E1,-9.929159656E-3
1.144400196E1,-1.237445138E-2
1.145190601E1,-3.610616550E-4
1.145984058E1,-7.666607853E-3
1.146777515E1,-1.016701851E-2
1.147574024E1,-1.247245260E-2
1.148367481E1,-1.248984970E-2
1.149160938E1,-9.943162091E-3
1.149954395E1,-9.872790426E-3
1.150747852E1,-1.461011358E-2
1.151541309E1,-1.460111979E-2
1.152334766E1,-1.216761582E-2
1.153125172E1,-9.754469618E-3
1.153918629E1,-7.318755146E-3
1.154709034E1,-4.800220486E-3
1.155502491E1,-9.526873007E-3
1.156299000E1,-1.671063155E-2
1.157092457E1,-7.175726350E-3
1.157885914E1,-1.196868531E-2
1.158679371E1,-2.144112810E-2
1.159469776E1,-2.412328031E-3
1.160263233E1,-7.158992812E-3
1.161053638E1,-9.560020640E-3
1.161850147E1,-1.675127260E-2
1.162646656E1,4.755394999E-3
1.163440113E1,2.356636338E-3
1.164233570E1,-2.432446927E-3
1.165027027E1,-9.737597778E-3
1.165820484E1,-7.467273623E-3
1.166613941E1,-7.508717943E-3
1.167407398E1,-1.009266358E-2
1.168200855E1,-7.822316140E-3
1.168991260E1,-1.261694264E-2
1.169784717E1,-1.040045172E-2
1.170578175E1,-1.040412299E-2
1.171374683E1,-1.505188644E-2
1.172168140E1,-1.977677643E-2
1.172961597E1,-1.013332047E-2
1.173755054E1,-3.074594773E-3
1.174548511E1,-1.500148140E-2
1.175338917E1,-1.005945820E-2
1.176132374E1,-9.996861219E-3
1.176922779E1,-1.478174701E-2
1.177716236E1,-1.464789733E-2
1.178512745E1,-7.313105278E-3
1.179306202E1,-7.479066029E-3
1.180099659E1,-1.473718323E-2
1.180893116E1,-1.467866171E-2
1.181686573E1,-5.018512718E-3
1.182480030E1,-2.582640853E-3
1.183270435E1,-9.686004370E-3
1.184066944E1,-1.212728582E-2
1.184860401E1,-7.401884533E-3
1.185653858E1,-2.613029908E-3
1.186447315E1,-9.736221284E-3
1.187237720E1,-2.678199206E-3
1.188031177E1,-1.232481748E-2
1.188824634E1,-3.125909716E-4
1.189618092E1,-5.128607154E-3
1.190414600E1,-1.949034445E-2
1.191208057E1,-2.813915256E-3
1.192001514E1,-7.671498228E-3
1.192794971E1,-1.251337864E-2
1.193588428E1,-1.727173291E-2
1.194381885E1,-7.584834937E-3
1.195172291E1,-7.616022602E-3
1.195965748E1,-2.439857647E-2
1.196762257E1,-1.009728946E-2
1.197555714E1,-2.195953578E-2
1.198349171E1,-1.003959961E-2
1.199142628E1,-1.253498811E-2
1.199936085E1,-1.240838040E-2
1.200729542E1,-1.011332870E-2
1.201522999E1,-1.247362234E-2
1.202316456E1,-7.696078625E-3
1.203112964E1,-1.026632451E-2
1.203906422E1,-1.501720212E-2
1.204699879E1,-6.522149779E-4
1.205493336E1,-1.252250094E-2
1.206286793E1,-1.018260978E-2
1.207077198E1,-6.055785343E-4
1.207870655E1,-1.269942336E-2
1.208667164E1,-8.006287739E-3
1.209460621E1,-1.040693745E-2
1.210254078E1,3.999717534E-3
1.211047535E1,-8.075633086E-3
1.211840992E1,-9.340899996E-4
1.212631397E1,-8.244024590E-3
1.213424854E1,-8.244024590E-3
1.214218311E1,-1.065506041E-2
1.215011768E1,-1.119791996E-3
1.215805225E1,-3.596245311E-3
1.216598682E1,-3.719906323E-3
1.217392139E1,-1.325704623E-3
1.218185596E1,-2.046966180E-2
1.218976002E1,-1.099191047E-2
1.219766407E1,-8.680597879E-3
1.220556812E1,-8.721060120E-3
1.221350269E1,-1.584984735E-2
1.222143726E1,-1.105927490E-2
1.222940235E1,-1.349440031E-2
1.223733692E1,-6.381597836E-3
1.224527149E1,-6.340153050E-3
1.225320606E1,-4.018746316E-3
1.226114063E1,-1.665766817E-3
1.226904468E1,-2.311279252E-2
1.227697926E1,-2.061820589E-2
1.228494434E1,-1.335710101E-2
1.229287891E1,-6.132228766E-3
1.230084400E1,-1.097065769E-2
1.230874805E1,-8.534410037E-3
1.231671314E1,-2.281805873E-2
1.232464771E1,-3.581115045E-3
1.233258228E1,-2.040423080E-2
1.234051685E1,-2.280182391E-2
1.234845142E1,-3.772580996E-3
1.235638599E1,-1.817693003E-2
1.236435108E1,-1.347140316E-2
1.237228565E1,-1.099760830E-2
1.238022022E1,-1.565036923E-2
1.238815479E1,-1.329873875E-2
1.239608936E1,-8.490564302E-3
1.240399342E1,-8.506667800E-3
1.241195850E1,-1.091600768E-2
1.241989307E1,1.056103967E-3
1.242782764E1,-1.084333286E-2
1.243576221E1,-1.323313080E-2
1.244366627E1,-6.115686614E-3
1.245160084E1,-1.554713584E-2
1.245956592E1,-8.218305185E-3
1.246743946E1,-5.782500375E-3
1.247537403E1,-1.300838776E-2
1.248333912E1,-8.261429146E-3
1.249127369E1,-1.035017427E-3
1.249920826E1,-8.134513162E-3
1.250714283E1,-1.048907824E-2
1.251507740E1,-9.946203791E-4
1.252301197E1,-1.287440211E-2
1.253094654E1,-8.100970648E-3
1.253888111E1,-1.530569233E-2
1.254678516E1,-1.528250054E-2
1.255471973E1,-8.033134975E-3
1.256262379E1,-8.116023615E-3
1.257055836E1,-1.053159311E-2
1.257849293E1,-1.054453850E-2
1.258639698E1,-8.233767003E-3
1.259433155E1,-5.861732643E-3
1.260229664E1,-1.779752225E-2
1.261023121E1,-1.076243445E-2
1.261816578E1,-1.804529317E-2
1.262610035E1,-6.032679696E-3
1.263403492E1,-8.411414921E-3
1.264196949E1,-1.184098888E-3
1.264990406E1,-5.806946661E-3
1.265783863E1,-8.176741190E-3
1.266574268E1,-5.725762341E-3
1.267367725E1,-1.523491368E-2
1.268158130E1,-1.754243672E-2
1.268951588E1,-5.611821543E-3
1.269745045E1,-1.041861065E-2
1.270541553E1,-5.742427427E-3
1.271335010E1,-3.379607573E-3
1.272128467E1,-1.068416983E-2
1.272921925E1,-5.853874143E-3
1.273715382E1,-1.785746589E-2
1.274508838E1,-1.288581081E-2
1.275302296E1,-2.242279612E-2
1.276092701E1,-1.532294042E-2
1.276886158E1,-1.053453796E-2
1.277676563E1,-1.767358184E-2
1.278470020E1,-1.512165368E-2
1.279263477E1,-3.357294947E-3
1.280059986E1,-1.064196602E-2
1.280853443E1,-1.072495803E-2
1.281646900E1,-8.313294500E-3
1.282440357E1,-1.305923797E-2
1.283233814E1,-1.552082412E-2
1.284024219E1,-1.070012152E-2
1.284817676E1,-1.070766337E-2
1.285611134E1,-1.305531058E-2
1.286407642E1,-8.208377287E-3
1.287201099E1,-1.065310836E-2
1.287994556E1,-1.309201401E-2
1.288788013E1,-8.410260081E-3
1.289581470E1,-3.579952754E-3
1.290371876E1,-1.073582657E-2
1.291165333E1,-1.538892649E-2
1.291961842E1,-3.417689353E-3
1.292755298E1,-8.205864578E-3
1.293548756E1,-1.064246055E-3
1.294342213E1,-1.069661416E-2
1.295135670E1,-5.949040409E-3
1.295929127E1,-6.013459992E-3
1.296722584E1,-1.091106236E-2
1.297516041E1,-1.553625800E-2
1.298303394E1,-1.538168825E-2
1.299099903E1,-1.782139018E-2
1.299893360E1,-1.060686074E-2
1.300689869E1,-8.275113069E-3
1.301483326E1,3.612547182E-3
1.302276783E1,-1.214754302E-3
1.303070240E1,-8.334478363E-3
1.303863697E1,-1.788009889E-2
1.304657154E1,-1.792573929E-2
1.305450611E1,-1.538716070E-2
1.306241016E1,-8.121027611E-3
1.307034473E1,-5.767263938E-3
1.307827930E1,-3.413812257E-3
1.308621387E1,-3.620572388E-3
1.309417896E1,-1.311876718E-2
1.310205250E1,-1.545881853E-2
1.311001759E1,-3.569602966E-3
1.311795216E1,-1.560471021E-2
1.312588672E1,-6.069346797E-3
1.313382130E1,-5.945013370E-3
1.314175587E1,-1.198677812E-3
1.314969044E1,-1.555310376E-2
1.315759449E1,-1.184480730E-3
1.316552906E1,-1.073519327E-2
1.317346363E1,-3.552355804E-3
1.318142872E1,-1.074851491E-2
1.318936329E1,-1.319175586E-2
1.319729786E1,-1.315514930E-2
1.320523243E1,-1.077824645E-2
1.321316700E1,-6.057328079E-3
1.322110157E1,-6.016190629E-3
1.322903614E1,-1.078351587E-2
1.323694019E1,-1.316292211E-2
1.324487476E1,-8.393635042E-3
1.325277882E1,-1.071261056E-2
1.326071338E1,-5.947572645E-3
1.326864796E1,-5.947341677E-3
1.327658253E1,-1.793411747E-2
1.328454761E1,-1.552855596E-2
1.329248218E1,-6.034406368E-3
1.330041676E1,-3.723179922E-3
1.330835132E1,-1.100317389E-2
1.331625538E1,-8.608740754E-3
1.332418995E1,-8.608740754E-3
1.333212452E1,-8.592731319E-3
1.334002857E1,-2.042825893E-2
1.334796314E1,-1.553430781E-2
1.335592823E1,-2.022740245E-2
1.336386280E1,-1.304869261E-2
1.337179737E1,-1.058514789E-2
1.337973194E1,-5.880184006E-3
1.338766651E1,-3.444239497E-3
1.339560108E1,-5.921097938E-3
1.340353565E1,-1.548634283E-2
1.341147022E1,-8.412945084E-3
1.341940479E1,-1.552862301E-2
1.342733936E1,-8.318874054E-3
1.343524342E1,-8.245034143E-3
1.344317798E1,-8.367511444E-3
1.345114307E1,-2.041778900E-2
1.345907764E1,-6.052348297E-3
1.346701221E1,-1.068715751E-2
1.347491627E1,-8.356299251E-3
1.348285084E1,-1.548454352E-2
1.349078541E1,-3.512384370E-3
1.349868946E1,-8.300098591E-3
1.350659351E1,-1.322683226E-2
1.351452808E1,-6.126340944E-3
1.352246265E1,-1.815534383E-2
1.353039722E1,-1.082488894E-2
1.353830128E1,-1.082488894E-2
1.354623585E1,-2.025751397E-2
1.355417042E1,-8.309517987E-3
1.356213550E1,-8.280201815E-3
1.357007008E1,-8.262729272E-3
1.357800464E1,-1.772215590E-2
1.358593922E1,-1.289449539E-2
1.359387379E1,-8.002672344E-3
1.360180836E1,-1.035535149E-2
1.360974293E1,-8.024269715E-3
1.361764698E1,-1.519583352E-2
1.362558155E1,-3.266178071E-3
1.363348560E1,-2.213381603E-2
1.364142017E1,-1.022002846E-2
1.364935474E1,-1.743282005E-2
1.365731983E1,-5.378374830E-3
1.366525440E1,-1.482116804E-2
1.367318897E1,-1.488625444E-2
1.368112354E1,-5.294787697E-3
1.368905811E1,-1.248740871E-2
1.369696216E1,-1.482477412E-2
1.370489674E1,-1.013478450E-2
1.371272633E1,-1.011503022E-2
1.372066090E1,-1.493807696E-2
1.372859547E1,-1.012216415E-2
1.373653004E1,-1.014514826E-2
1.374446461E1,-1.259169076E-2
1.375239918E1,-2.972981893E-3
1.376036427E1,-7.678724360E-3
1.376829884E1,-3.055638634E-3
1.377623341E1,4.031087272E-3
1.378416798E1,1.554085873E-3
1.379207203E1,-8.064392023E-3
1.380000660E1,-1.281632110E-2
1.380797169E1,-8.137647063E-3
1.381593678E1,-1.050331257E-2
1.382387135E1,-1.519728452E-2
1.383180592E1,-9.149624966E-4
1.383974049E1,-8.109573275E-3
1.384767506E1,-1.060902327E-2
1.385560963E1,-1.536648162E-2
1.386354420E1,-8.265988901E-3
1.387144825E1,-5.829953123E-3
1.387938282E1,-2.010563575E-2
1.388731739E1,-1.058279164E-2
1.389528248E1,-1.055652089E-2
1.390321705E1,-1.285865344E-2
1.391112110E1,-5.635290872E-3
1.391905567E1,-5.677031819E-3
1.392699024E1,-1.298033074E-2
1.393495533E1,-1.067859866E-2
1.394288990E1,-8.386055939E-3
1.395082447E1,-8.261267096E-3
1.395875904E1,-1.304821298E-2
1.396669361E1,-8.277045563E-3
1.397462818E1,-2.729798853E-2
1.398256275E1,-8.204761893E-3
1.399046681E1,-1.056500152E-2
1.399840138E1,-3.423453309E-3
1.400633595E1,-1.317312196E-2
1.401430104E1,-1.071552187E-2
1.402223560E1,-1.060739905E-2
1.403017018E1,-1.291856542E-2
1.403810475E1,-1.292291377E-2
1.404603932E1,-1.764054969E-2
1.405397389E1,-3.275109455E-3
1.406190846E1,-1.038588583E-2
1.406984303E1,-1.039934717E-2
1.407777760E1,-5.776491482E-3
1.408571217E1,-1.194851007E-3
1.409358570E1,-1.070363075E-2
1.410152027E1,-3.510640003E-3
1.410945484E1,-1.071527041E-2
1.411738941E1,-1.791309193E-2
1.412532398E1,-8.358764462E-3
1.413328907E1,-1.072219200E-2
1.414122364E1,-8.303917944E-3
1.414915821E1,-8.332080208E-3
1.415709278E1,-1.549704745E-2
1.416502735E1,-5.908610765E-3
1.417293141E1,-1.075725257E-2
1.418086598E1,-1.786509342E-2
1.418877003E1,-3.541258164E-3
1.419673512E1,-1.317840628E-2
1.420466969E1,-8.412508294E-3
1.421260426E1,3.558726981E-3
1.422053883E1,-1.791264862E-2
1.422847340E1,-1.195588615E-3
1.423643849E1,-2.009874210E-2
1.424437306E1,-8.184189908E-3
1.425230763E1,-1.534178481E-2
1.426024220E1,-1.291432884E-2
1.426814625E1,-3.244119696E-3
1.427608082E1,-8.178729564E-3
1.428401539E1,-3.375875764E-3
1.429191944E1,-1.540227234E-2
1.429985401E1,-8.283081464E-3
1.430778858E1,-2.257292159E-2
1.431575367E1,-5.937842187E-3
1.432368824E1,-1.061859354E-2
1.433162281E1,-1.776795834E-2
1.433955738E1,-3.361235373E-3
1.434746144E1,-1.055617072E-2
1.435539601E1,-1.289354358E-2
1.436333058E1,-7.920229807E-3
1.437126515E1,-1.246570423E-2
1.437919972E1,-7.677751593E-3
1.438713429E1,-7.635854650E-3
1.439506886E1,-1.486204192E-2
1.440300343E1,-5.284325220E-3
1.441093800E1,-5.242720246E-3
1.441890309E1,-7.678431924E-3
1.442683766E1,-3.004395403E-3
1.443477223E1,-5.481259432E-3
1.444270680E1,-5.481260363E-3
1.445064137E1,1.743176021E-3
1.445857594E1,-1.501166262E-2
1.446647999E1,-7.878888398E-3
1.447441456E1,-9.020320140E-4
1.448237965E1,-1.053288765E-2
1.449034474E1,-9.976164438E-4
1.449827931E1,1.355525106E-3
1.450618336E1,-1.527001150E-2
1.451411793E1,-8.226782084E-3
1.452205250E1,-1.085619908E-3
1.453001759E1,-8.150845766E-3
1.453795216E1,-8.172890171E-3
1.454588673E1,-8.255777881E-3
1.455382130E1,-1.774646342E-2
1.456175587E1,-8.376205340E-3
1.456969044E1,-3.545974381E-3
1.457762501E1,-1.553629898E-2
1.458555958E1,-5.941479001E-3
1.459349415E1,-3.535426222E-3
1.460142872E1,-2.010408416E-2
1.460936329E1,1.402351074E-3
1.461729786E1,-1.536998712E-2
1.462520191E1,-8.270491846E-3
1.463313648E1,-3.564213403E-3
1.464107105E1,-3.563988954E-3
1.464903614E1,-8.393771946E-3
1.465697071E1,-3.646432422E-3
1.466490528E1,-1.797066443E-2
1.467283985E1,-1.317234337E-2
1.468077442E1,-3.661508672E-3
1.468867848E1,-1.094167307E-2
1.469664356E1,9.474325925E-4
1.470457813E1,-1.095283218E-2
1.471251271E1,-6.164873485E-3
1.472044728E1,-1.097212732E-2
1.472838185E1,-8.545865305E-3
1.473631642E1,-3.624284640E-3
1.474425099E1,-1.323698647E-2
1.475218556E1,-8.489803411E-3
1.476012013E1,3.481204621E-3
1.476808521E1,-1.315735374E-2
1.477601978E1,-1.305761281E-2
1.478392384E1,-8.227543905E-3
1.479185841E1,-1.772147231E-2
1.479979298E1,-1.290172897E-2
1.480769703E1,-1.056724042E-2
1.481566212E1,-8.149493486E-3
1.482359669E1,-1.051033847E-2
1.483153126E1,-1.762170345E-2
1.483946583E1,-1.515742205E-2
1.484740040E1,4.037952982E-3
1.485533497E1,-1.030599698E-2
1.486326954E1,-1.750325784E-2
1.487120411E1,-1.267893985E-2
1.487913868E1,-5.496333819E-3
1.488704273E1,-1.507258788E-2
1.489497730E1,-7.871693932E-3
1.490291188E1,-1.505099609E-2
1.491087696E1,-5.498635117E-3
1.491881153E1,-1.747210324E-2
1.492674610E1,-7.918926887E-3
1.493468067E1,-7.856179029E-3
1.494258473E1,-1.014108956E-2
1.495051930E1,-1.495539770E-2
1.495845387E1,-7.884529419E-3
1.496635792E1,-1.032635383E-2
1.497429249E1,-7.875427604E-3
1.498222706E1,-5.509134848E-3
1.499019215E1,-1.977764443E-2
1.499812672E1,-7.893689908E-4
1.500603077E1,-7.913504727E-3
1.501399586E1,-1.511493325E-2
1.502193043E1,-3.132715821E-3
1.502986500E1,-7.932814769E-3
1.503779957E1,-7.829153910E-3
1.504573414E1,-1.028240845E-2
1.505366871E1,-1.032849215E-2
1.506157276E1,-1.026872173E-2
1.506950733E1,-8.155493997E-4
1.507744190E1,-3.158000298E-3
1.508540699E1,-5.571550224E-3
1.509334156E1,-1.033286378E-2
1.510127613E1,-1.034830511E-2
1.510921070E1,-1.032309234E-2
1.511714527E1,-1.980839670E-2
1.512504933E1,-1.010508556E-2
1.513298390E1,-1.252203062E-2
1.514088795E1,-1.012782846E-2
1.514882252E1,-1.243825071E-2
1.515672657E1,-7.667441387E-3
1.516466114E1,-7.791775744E-3
1.517259571E1,-7.814830169E-3
1.518056080E1,-7.905598730E-3
1.518849537E1,-8.000503294E-3
1.519646046E1,-1.512972079E-2
1.520439503E1,-1.263241190E-2
1.521232960E1,1.691513695E-3
1.522026417E1,-1.510153338E-2
1.522819874E1,-1.029551961E-2
1.523613331E1,1.675928012E-3
1.524403736E1,-3.184171394E-3
1.525200245E1,-3.101265989E-3
1.525993702E1,-1.035126485E-2
1.526787159E1,-1.276075654E-2
1.527580616E1,-5.620256532E-3
1.528374073E1,-3.180308267E-3
1.529167530E1,-7.951587439E-3
1.529957936E1,-5.557604600E-3
1.530751392E1,-1.039815694E-2
1.531544850E1,-1.274378784E-2
1.532338307E1,-8.079756051E-3
1.533134815E1,-1.060913503E-2
1.533928272E1,-8.173110895E-3
1.534724781E1,-5.737463478E-3
1.535518238E1,-1.539747417E-2
1.536311695E1,-1.316812914E-2
1.537105152E1,-6.026591640E-3
1.537895558E1,-1.314517017E-2
1.538689015E1,-8.315697312E-3
1.539482472E1,-2.010671608E-2
1.540278980E1,-5.645802710E-3
1.541072438E1,-1.278155949E-2
1.541865894E1,-5.584285129E-3
1.542659352E1,-7.904022001E-3
1.543452809E1,-3.198507242E-3
1.544243214E1,-3.323318437E-3
1.545036671E1,-1.039872132E-2
1.545827076E1,-1.271938533E-2
1.546620533E1,-1.039195061E-2
1.547413990E1,-3.208912909E-3
1.548204396E1,-8.009092882E-3
1.548994801E1,-7.894885726E-3
1.549788258E1,-1.035433635E-2
1.550581715E1,-8.146717213E-3
1.551378224E1,-1.539163664E-2
1.552171681E1,-1.062284224E-2
1.552965138E1,-9.632506408E-4
1.553758595E1,-1.769001223E-2
1.554552052E1,-8.132166229E-3
1.555345509E1,-1.284360513E-2
1.556132862E1,-3.255056217E-3
1.556926319E1,-1.270664576E-2
1.557722828E1,-5.565269385E-3
1.558516285E1,-7.854785770E-3
1.559309742E1,1.639345661E-3
1.560103199E1,-8.794511668E-4
1.560896656E1,-1.046847552E-2
1.561690113E1,-3.285227343E-3
1.562483570E1,-1.525021344E-2
1.563277027E1,-1.055483148E-2
1.564070484E1,1.411868259E-3
1.564863941E1,-8.164937608E-3
1.565654347E1,-1.059663482E-2
1.566450855E1,1.412197948E-3
1.567244313E1,-1.060398854E-2
1.568037770E1,-8.153004572E-3
1.568831226E1,-5.703030620E-3
1.569621632E1,-5.744050723E-3
1.570415089E1,-1.772584021E-2
1.571208546E1,-8.150794543E-3
1.571998951E1,-1.529019699E-2
1.572792408E1,1.469849609E-3
1.573588917E1,-1.277257502E-2
1.574382374E1,-7.919162512E-3
1.575175831E1,-1.261377800E-2
1.575969288E1,-5.514380056E-3
1.576762745E1,-7.885349914E-3
1.577553150E1,-1.513750851E-2
1.578346607E1,1.704682596E-3
1.579140064E1,1.575090922E-3
1.579930470E1,-1.988128945E-2
1.580720875E1,-1.040782779E-2
1.581514332E1,-3.175862134E-3
1.582310841E1,-3.134841099E-3
1.583104298E1,-1.276302803E-2
1.583897755E1,1.555468887E-3
1.584691212E1,1.555047929E-3
1.585484669E1,-1.519102789E-2
1.586278126E1,-1.035300829E-2
1.587071583E1,-1.744995825E-2
1.587861988E1,-3.126564436E-3
1.588652394E1,-7.914755493E-3
1.589445851E1,-7.854846306E-3
1.590239308E1,-1.255621482E-2
1.591035816E1,-1.481237635E-2
1.591829273E1,-9.986024350E-3
1.592622730E1,-7.673764601E-3
1.593416188E1,-5.320796743E-3
1.594209644E1,-1.245180331E-2
1.595003102E1,-2.946134191E-3
1.595796559E1,-1.243108138E-2
1.596590016E1,-7.579182275E-3
1.597383473E1,-1.001342013E-2
1.598176930E1,-1.474712417E-2
1.598970387E1,-2.577900887E-4
1.599760792E1,-1.698873378E-2
1.600554249E1,-1.465993933E-2
1.601344654E1,-5.041529424E-3
1.602138111E1,-2.726279665E-3
1.602931568E1,-7.514474913E-3
1.603728077E1,-5.148783326E-3
1.604521534E1,-1.474585943E-2
1.605314991E1,-1.000907645E-2
1.606108448E1,-1.482302044E-2
1.606901905E1,-1.487529092E-2
1.607695362E1,-1.005778834E-2
1.608488819E1,-1.239672024E-2
1.609279225E1,-7.538832724E-3
1.610072682E1,-9.953806177E-3
1.610866139E1,-7.581455633E-3
1.611659596E1,-1.241626032E-2
1.612453053E1,-2.872269601E-3
1.613246510E1,-1.238405239E-2
1.614043018E1,-1.259475667E-2
1.614836476E1,-5.388553254E-4
1.615629933E1,-5.388350226E-3
1.616423390E1,-1.481714286E-2
1.617213795E1,-1.004217938E-2
1.618007252E1,-7.689050864E-3
1.618803761E1,-5.239317659E-3
1.619600270E1,-2.920741681E-3
1.620393726E1,-4.832684062E-4
1.621187184E1,-1.482145488E-2
1.621980641E1,-1.003614813E-2
1.622774098E1,-5.271813367E-3
1.623564503E1,-1.245096792E-2
1.624357960E1,1.950042788E-3
1.625148365E1,-1.713634282E-2
1.625944874E1,-2.720452845E-3
1.626738331E1,-9.877445176E-3
1.627528736E1,-1.694354415E-2
1.628322193E1,-1.215514541E-2
1.629115650E1,-2.569335047E-3
1.629912159E1,2.210127655E-3
1.630705616E1,-1.223033667E-2
1.631499073E1,-5.131152458E-3
1.632292530E1,-2.773449291E-3
1.633082936E1,-7.644316182E-3
1.633876393E1,-1.960043237E-2
1.634669850E1,-5.095259752E-3
1.635463307E1,-9.776958264E-3
1.636259815E1,-2.543637995E-3
1.637053272E1,-9.739951231E-3
1.637846730E1,-1.688141376E-2
1.638640186E1,-9.794909507E-3
1.639430592E1,-5.048108287E-3
1.640224049E1,-7.371025160E-3
1.641014454E1,-7.391957566E-3
1.641807911E1,-7.515601814E-3
1.642598316E1,-1.229092851E-2
1.643391773E1,-7.543758955E-3
1.644185230E1,-2.878999803E-3
1.644978688E1,-1.715652458E-2
1.645772144E1,-5.207699724E-3
1.646568653E1,-1.492995303E-2
1.647362110E1,-1.009475067E-2
1.648155567E1,-5.329564679E-3
1.648945973E1,-1.244799607E-2
1.649739430E1,-5.513313692E-3
1.650532887E1,1.663782634E-3
1.651323292E1,-2.215958387E-2
1.652116749E1,-3.047305159E-3
1.652913258E1,-7.666779682E-3
1.653706715E1,-7.678204682E-3
1.654500172E1,-1.254985668E-2
1.655293629E1,-2.922483254E-3
1.656087086E1,-1.251597703E-2
1.656877491E1,-1.021606848E-2
1.657674000E1,-3.066246398E-3
1.658470509E1,-7.552518509E-4
1.659257862E1,-1.021344773E-2
1.660054371E1,-7.941992022E-3
1.660847828E1,-7.974882610E-4
1.661641285E1,-8.045196533E-3
1.662434742E1,-1.752283052E-2
1.663228199E1,1.630569808E-3
1.664021656E1,-2.464526147E-2
1.664815113E1,-7.968100719E-3
1.665608570E1,-1.036060601E-2
1.666402027E1,-1.048204117E-2
1.667195484E1,-3.382644616E-3
1.667988941E1,-1.520914398E-2
1.668779347E1,-1.042541303E-2
1.669575855E1,-7.969850674E-3
1.670369312E1,-1.274004951E-2
1.671162770E1,-1.282803901E-2
1.671956226E1,-1.287613343E-2
1.672746632E1,-3.326538950E-3
1.673543141E1,-1.046842895E-2
1.674336598E1,-1.039244607E-2
1.675130055E1,-1.044283435E-2
1.675923512E1,-7.987002842E-3
1.676716969E1,-1.060341485E-2
1.677510426E1,-1.043293253E-2
1.678303883E1,-1.523660496E-2
1.679091236E1,-3.349017352E-3
1.679887745E1,-1.539100893E-2
1.680681202E1,-1.290624030E-2
1.681477711E1,-1.521088369E-2
1.682271168E1,-3.314506263E-3
1.683064625E1,-3.266674466E-3
1.683858082E1,-1.047449932E-2
1.684648487E1,-8.179849945E-3
1.685441944E1,-1.530444622E-2
1.686238453E1,-8.329859935E-3
1.687034962E1,-1.790254004E-2
1.687828419E1,-1.314200927E-2
1.688621876E1,-8.534458466E-3
1.689415333E1,-6.140256766E-3
1.690208790E1,-8.575689979E-3
1.691002247E1,-1.304771286E-3
1.691795704E1,-3.740256652E-3
1.692589161E1,-1.323868614E-2
1.693382618E1,-1.142917667E-3
1.694176075E1,-1.077820733E-2
1.694966480E1,-6.054722238E-3
1.695759938E1,-1.570079476E-2
1.696556446E1,-1.564699970E-2
1.697349903E1,-1.560956426E-2
1.698143360E1,-1.316966675E-2
1.698936817E1,-1.308383606E-2
1.699730274E1,-3.420237452E-3
1.700523731E1,-1.068441570E-2
1.701317188E1,3.764107823E-3
1.702110646E1,-1.529237814E-2
1.702904102E1,-8.131650276E-3
1.703700611E1,-8.147384971E-3
1.704494068E1,-5.711099599E-3
1.705287525E1,-3.441442735E-3
1.706080982E1,-1.047840156E-2
1.706874439E1,-1.055918261E-2
1.707667896E1,-1.286345441E-2
1.708461354E1,-8.033180609E-3
1.709254811E1,-5.500910338E-3
1.710048268E1,-1.266747434E-2
1.710838673E1,6.445391104E-3
1.711635182E1,-3.209046088E-3
1.712428639E1,-5.603247788E-3
1.713222096E1,-1.762581803E-2
1.714015553E1,-1.757743210E-2
1.714809010E1,-7.978526875E-3
1.715602467E1,-8.019811474E-3
1.716395924E1,-8.077966049E-3
1.717189381E1,-9.763254784E-4
1.717985890E1,-1.530941203E-2
1.718779347E1,-1.525659673E-2
1.719572804E1,1.378750429E-3
1.720366261E1,-1.525009796E-2
1.721159718E1,-1.044109650E-2
1.721953175E1,-1.282203663E-2
1.722746632E1,-3.193684854E-3
1.723540089E1,-3.234970383E-3
1.724330494E1,-1.289234962E-2
1.725123951E1,-1.054420508E-2
1.725917408E1,-1.761626080E-2
1.726713917E1,-1.034974866E-2
1.727507374E1,-1.035977341E-2
1.728300831E1,-3.259631805E-3
1.729094288E1,-3.290207125E-3
1.729887745E1,-8.124789223E-3
1.730681202E1,-1.043531671E-2
1.731474659E1,-8.122568019E-3
1.732265064E1,-8.122568019E-3
1.733058521E1,-5.687080789E-3
1.733851979E1,-1.279382966E-2
1.734645436E1,-1.750901341E-2
1.735441944E1,-7.900386117E-4
1.736235401E1,-3.056072630E-3
1.737028858E1,-5.475192796E-3
1.737822315E1,1.745298505E-3
1.738609669E1,-7.936408743E-3
1.739403126E1,-7.978586480E-3
1.740196583E1,-5.575168412E-3
1.740993092E1,-8.069840260E-3
1.741786549E1,-1.778301224E-2
1.742580006E1,-3.375987522E-3
1.743373463E1,-3.405464813E-3
1.744166920E1,-1.528766751E-2
1.744960377E1,-1.998458616E-2
1.745753834E1,-1.270525157E-2
1.746541188E1,-3.336463124E-3
1.747334644E1,-1.061862800E-3
1.748128102E1,-8.139150217E-3
1.748924610E1,-1.067543775E-2
1.749718067E1,-8.281236514E-3
1.750511524E1,-1.067600027E-2
1.751304981E1,-8.223066106E-3
1.752098438E1,-1.055705734E-2
1.752891896E1,-8.971500210E-4
1.753685352E1,-5.809887778E-3
1.754478810E1,-1.533137821E-2
1.755272267E1,-5.837775301E-3
1.756062672E1,-2.015247010E-2
1.756856129E1,-1.282685157E-2
1.757649586E1,-1.527130231E-2
1.758439991E1,-5.736311432E-3
1.759236500E1,-1.043761149E-2
1.760029957E1,-1.512486115E-2
1.760826466E1,-1.026877575E-2
1.761619923E1,-1.032594964E-2
1.762413380E1,-3.095440567E-3
1.763206837E1,-1.041321829E-2
1.763997242E1,-8.018805645E-3
1.764790699E1,-1.263728458E-2
1.765584156E1,-1.498010196E-2
1.766374562E1,-2.967276145E-3
1.767168018E1,-1.233598497E-2
1.767961476E1,-1.471990719E-2
1.768757984E1,-2.181859314E-2
1.769551441E1,-1.457393542E-2
1.770338795E1,-9.764738381E-3
1.771132252E1,-4.852333572E-3
1.771928761E1,-9.700330906E-3
1.772722218E1,-7.165056188E-3
1.773515675E1,-7.063431200E-3
1.774309132E1,-7.156047970E-3
1.775102589E1,-1.428963616E-2
1.775892994E1,-1.182293519E-2
1.776686451E1,-2.201657277E-3
1.777482960E1,-4.547196440E-3
1.778270313E1,-9.395826608E-3
1.779063770E1,-1.187336259E-2
1.779857228E1,-1.187223848E-2
1.780650684E1,-4.720608704E-3
1.781444142E1,-5.653686821E-5
1.782237599E1,-7.215036545E-3
1.783034107E1,4.621211439E-3
1.783827564E1,-1.449241117E-2
1.784621021E1,-9.665345773E-3
1.785414479E1,-2.157102898E-2
1.786207936E1,-9.656420909E-3
1.787001393E1,-9.627215564E-3
1.787794850E1,-1.199245825E-2
1.788588307E1,-1.430081204E-2
1.789381764E1,-4.682141356E-3
1.790172169E1,-9.548489936E-3
1.790968678E1,-2.365050837E-3
1.791762135E1,-2.357409801E-3
1.792558644E1,-7.156923879E-3
1.793352100E1,-7.265002001E-3
1.794145558E1,-7.389814593E-3
1.794939015E1,-5.020640790E-3
1.795729420E1,4.451309796E-3
1.796522877E1,-3.355247900E-4
1.797316334E1,-1.688804477E-2
1.798103688E1,-1.928224601E-2
1.798894093E1,-1.434294600E-2
1.799687550E1,-2.448599786E-3
1.800484059E1,-1.207745634E-2
1.801277516E1,-2.146402001E-2
1.802070973E1,9.755603969E-7
1.802864430E1,-9.632013738E-3
1.803657887E1,-1.429340523E-2
1.804451344E1,-2.356980462E-3
1.805244801E1,-4.668084905E-3
1.806038258E1,2.473541535E-3
1.806831715E1,-7.073740009E-3
1.807622120E1,-2.401587553E-3
1.808415577E1,-9.570582770E-3
1.809209034E1,-1.660270989E-2
1.810005543E1,-7.192319259E-3
1.810799000E1,-9.724711999E-3
1.811592457E1,-5.049339961E-3
1.812385914E1,-9.883170947E-3
1.813179371E1,-7.549134083E-3
1.813969776E1,-5.221033469E-3
1.814763233E1,-1.002968848E-2
1.815553639E1,-9.907934815E-3
1.816347096E1,-5.144425202E-3
1.817140553E1,-1.220320538E-2
1.817934010E1,-2.668002155E-3
1.818724415E1,-5.144569091E-3
1.819517872E1,-1.239425875E-2
1.820314381E1,-1.008872688E-2
1.821107838E1,-1.243509911E-2
1.821901295E1,-5.244151223E-3
1.822694752E1,-1.235316880E-2
1.823488209E1,-1.226103492E-2
1.824281666E1,-7.513871882E-3
1.825075123E1,-1.694542542E-2
1.825868580E1,-7.340709679E-3
1.826665089E1,-1.434862334E-2
1.827458546E1,-1.424210891E-2
1.828252003E1,1.230998896E-4
1.829045460E1,-9.424712509E-3
1.829838917E1,-1.669212431E-2
1.830632374E1,1.081116498E-4
1.831422779E1,-1.416695490E-2
1.832216236E1,-1.181744598E-2
1.833009693E1,-7.028631400E-3
1.833800099E1,-7.111839019E-3
1.834593556E1,-1.197573077E-2
1.835387013E1,-2.435144503E-3
1.836183521E1,-1.201361138E-2
1.836976979E1,-7.166117430E-3
1.837770436E1,-2.544129267E-3
1.838563893E1,-1.211642288E-2
1.839357350E1,1.196376979E-5
1.840150807E1,-2.153585106E-2
1.840944264E1,7.081675809E-3
1.841734669E1,-7.269979920E-3
1.842528126E1,-1.210167259E-2
1.843321583E1,-5.024843849E-3
1.844118092E1,-5.013973918E-3
1.844911549E1,-1.454550587E-2
1.845705006E1,-1.229826082E-2
1.846498463E1,-1.474725362E-2
1.847291920E1,-7.584349252E-3
1.848085377E1,-4.846332595E-4
1.848878834E1,-7.675439119E-3
1.849672291E1,-5.391981453E-3
1.850465748E1,-1.261747163E-2
1.851256153E1,-5.375305191E-3
1.852049610E1,-7.728219964E-3
1.852843067E1,-2.201452851E-2
1.853633473E1,-1.472438313E-2
1.854426930E1,-2.705868799E-3
1.855220387E1,-2.778138965E-3
1.856013844E1,-5.171934608E-3
1.856807301E1,-9.926104918E-3
1.857603810E1,-9.990122169E-3
1.858397267E1,-7.558664307E-3
1.859190724E1,-2.760017291E-3
1.859984181E1,-9.941786528E-3
1.860777638E1,-2.800627146E-3
1.861571095E1,-5.470039789E-3
1.862364552E1,-1.261281688E-2
1.863154957E1,-7.885340601E-3
1.863948414E1,-1.256761048E-2
1.864741871E1,-1.261641365E-2
1.865535328E1,-7.827189751E-3
1.866328785E1,-3.196128644E-3
1.867122242E1,-3.191481344E-3
1.867915699E1,-1.509959809E-2
1.868709156E1,-1.745780557E-2
1.869505665E1,1.564237289E-3
1.870299122E1,-1.513418183E-2
1.871092579E1,-1.028933376E-2
1.871886036E1,-1.263457257E-2
1.872679493E1,-5.493004341E-3
1.873472950E1,-8.022205904E-3
1.874266407E1,-8.121784776E-3
1.875056812E1,3.807416186E-3
1.875850270E1,-8.248414844E-3
1.876646778E1,-2.477331087E-2
1.877440235E1,-1.263120119E-2
1.878233692E1,-7.828557864E-3
1.879024098E1,-3.076178022E-3
1.879817555E1,-1.012721099E-2
1.880611012E1,1.794735901E-3
1.881407520E1,-7.797432132E-3
1.882200978E1,-3.009434789E-3
1.882994434E1,-7.769744378E-3
1.883787892E1,-1.260315999E-2
1.884581349E1,-2.943259664E-3
1.885374806E1,-1.477287430E-2
1.886168263E1,-9.921265766E-3
1.886961720E1,-1.231986377E-2
1.887755177E1,-2.775663510E-3
1.888548634E1,1.881394535E-3
1.889339039E1,-6.792224012E-4
1.890132496E1,-7.952122018E-3
1.890922901E1,-3.247547895E-3
1.891716358E1,-1.746559516E-2
1.892512867E1,-3.266161308E-3
1.893309376E1,-3.169369884E-3
1.894102833E1,-1.272190083E-2
1.894896290E1,-7.817175239E-3
1.895689747E1,-7.885575294E-3
1.896483204E1,-1.736486703E-2
1.897276661E1,-5.393649917E-3
1.898070118E1,-1.252712682E-2
1.898863575E1,-5.303698126E-3
1.899657032E1,-7.772231940E-3
1.900450489E1,-7.708371617E-3
1.901240894E1,-3.086383455E-3
1.902034352E1,-1.496611163E-2
1.902824757E1,-7.797483820E-3
1.903618214E1,-1.269852836E-2
1.904414723E1,-7.849768735E-3
1.905208180E1,-1.025639474E-2
1.906004688E1,-1.495192945E-2
1.906798146E1,-2.973990981E-3
1.907591602E1,-3.016064409E-3
1.908385060E1,-7.053795271E-4
1.909178517E1,-5.550511647E-3
1.909971974E1,-7.819958963E-3
1.910768482E1,-7.874878123E-3
1.911561939E1,-7.856242359E-3
1.912355396E1,-1.256955415E-2
1.913145802E1,-1.498570293E-2
1.913939259E1,-3.014485817E-3
1.914732716E1,-1.733389311E-2
1.915526173E1,-1.251391508E-2
1.916322682E1,-1.009415183E-2
1.917116139E1,-1.006070897E-2
1.917909596E1,-2.919179387E-3
1.918703053E1,-7.832336240E-3
1.919496510E1,-1.020375732E-2
1.920289967E1,-5.497820210E-3
1.921077320E1,-7.955729961E-3
1.921873829E1,-3.159650601E-3
1.922667286E1,-5.554062780E-3
1.923463795E1,-1.272524521E-2
1.924257252E1,-7.978077047E-3
1.925050709E1,-1.029007509E-2
1.925844166E1,-1.513537578E-2
1.926637623E1,-1.027205028E-2
1.927431080E1,1.450503245E-3
1.928224537E1,-1.055867039E-2
1.929014942E1,-1.541750692E-2
1.929808399E1,-1.551527530E-2
1.930598805E1,-1.550416276E-2
1.931392262E1,-1.548793912E-2
1.932185719E1,-8.201416582E-3
1.932976124E1,1.330397092E-3
1.933769581E1,-1.146583352E-3
1.934563038E1,-8.442353457E-3
1.935356495E1,-1.310335658E-2
1.936149952E1,-3.567994572E-3
1.936946461E1,-1.076389663E-2
1.937739918E1,-3.497879952E-3
1.938533375E1,-3.622845747E-3
1.939326832E1,-6.042740773E-3
1.940120289E1,-1.082294993E-2
1.940913746E1,-1.079515181E-2
1.941707203E1,-8.442445658E-3
1.942497608E1,-8.590526879E-3
1.943291065E1,-2.050673962E-2
1.944084522E1,-1.336936466E-2
1.944871876E1,-8.663957939E-3
1.945668385E1,-2.046017349E-2
1.946461842E1,-8.520093746E-3
1.947255299E1,-1.091372222E-2
1.948048756E1,-1.569317468E-2
1.948839161E1,-1.812498085E-2
1.949632618E1,-1.091820933E-2
1.950423023E1,-1.560566947E-2
1.951216480E1,1.112035476E-3
1.952009938E1,-8.364198729E-3
1.952800343E1,-8.428393863E-3
1.953593800E1,-3.681533970E-3
1.954387257E1,-1.096262597E-2
1.955183766E1,-3.896845505E-3
1.955977223E1,-1.581557654E-2
1.956770680E1,-1.572605409E-2
1.957564137E1,9.918641299E-4
1.958357594E1,-6.050435361E-3
1.959151051E1,-6.117470097E-3
1.959944508E1,-1.800326817E-2
1.960737965E1,-1.082791574E-2
1.961531422E1,-1.250689384E-3
1.962324879E1,-1.801736653E-2
1.963118336E1,-1.066957414E-2
1.963911793E1,-8.329477161E-3
1.964702198E1,-1.552994177E-2
1.965495655E1,-1.551385224E-2
1.966286061E1,-1.320508681E-2
1.967079518E1,-1.089668460E-2
1.967872975E1,-2.032996342E-2
1.968666432E1,-1.067009568E-2
1.969462940E1,-1.310749352E-2
1.970256397E1,-5.945552606E-3
1.971049854E1,-1.078930497E-2
1.971843312E1,-1.793765090E-2
1.972633717E1,-2.725595236E-2
1.973427174E1,-1.532637514E-2
1.974223683E1,-5.775332917E-3
1.975017140E1,-1.057024859E-2
1.975813648E1,-1.534096524E-2
1.976601002E1,-8.130461909E-3
1.977391407E1,-1.058287174E-2
1.978181812E1,-1.296256203E-2
1.978978321E1,-1.053263061E-2
1.979771778E1,-1.295644976E-2
1.980565235E1,-5.798805039E-3
1.981361744E1,-1.302393992E-2
1.982155201E1,-1.060110331E-2
1.982948658E1,-5.605263170E-3
1.983742115E1,-1.275169943E-2
1.984532520E1,-3.085612319E-3
1.985325978E1,-6.500720046E-4
1.986119434E1,-1.492552459E-2
1.986915943E1,-5.419426132E-3
1.987709400E1,-5.399773363E-3
1.988499806E1,-1.500450633E-2
1.989296314E1,-1.490549743E-2
1.990086720E1,-1.721119508E-2
1.990883229E1,-1.483610645E-2
1.991676686E1,-1.964451000E-2
1.992467091E1,-5.362724885E-3
1.993260548E1,-6.136829033E-4
1.994057057E1,-1.021608524E-2
1.994850514E1,-7.834810764E-3
1.995647022E1,-1.021976955E-2
1.996440480E1,-3.029916435E-3
1.997236988E1,-1.031349227E-2
1.998030445E1,-1.521624066E-2
1.998823902E1,1.460498199E-3
1.999617359E1,-2.471403405E-2
2.000410816E1,-1.989702135E-2
2.001204273E1,-8.008583449E-3
2.001997730E1,-8.091473021E-3
2.002791188E1,-3.249257803E-3
2.003584644E1,-9.340136312E-4
2.004375050E1,-9.751818143E-4
2.005168507E1,-1.303255092E-2
2.005961964E1,-3.484166227E-3
2.006758473E1,-1.128592063E-3
2.007551930E1,-6.024166476E-3
2.008345387E1,-1.071048714E-2
2.009138844E1,-1.553209126E-2
2.009932301E1,-5.955066998E-3
2.010725758E1,-6.037520710E-3
2.011519215E1,-8.367928676E-3
2.012309620E1,-1.311764400E-2
2.013100025E1,-1.081613824E-2
2.013893482E1,-8.402299136E-3
2.014686939E1,-8.401862346E-3
2.015483448E1,-1.089395396E-2
2.016276905E1,-8.476736024E-3
2.017070362E1,-1.559790038E-2
2.017863819E1,-1.557440870E-2
2.018657276E1,-1.552475244E-2
2.019450733E1,-8.144508116E-3
2.020241139E1,-1.302409172E-2
2.021034596E1,-1.289045345E-2
2.021825001E1,1.351305284E-3
2.022618458E1,-8.077352308E-3
2.023411915E1,-1.286634058E-2
2.024205372E1,-1.048527285E-2
2.024998829E1,-1.283579413E-2
2.025792286E1,-1.278419327E-2
2.026585743E1,-2.000892535E-2
2.027379200E1,-3.373847343E-3
2.028172657E1,-3.373404033E-3
2.028966114E1,-1.773734763E-2
2.029759571E1,-5.922297481E-3
2.030553028E1,-1.081043296E-2
2.031346485E1,-1.567281224E-2
2.032139942E1,-6.130991969E-3
2.032930348E1,-1.085946895E-2
2.033726856E1,-1.087655500E-2
2.034520313E1,-3.851514310E-3
2.035313770E1,-1.814205572E-2
2.036107228E1,-6.129220594E-3
2.036900684E1,-1.572155021E-2
2.037691090E1,-1.082616858E-2
2.038484547E1,-6.065818015E-3
2.039278004E1,-1.068249904E-2
2.040071461E1,-1.056461595E-2
2.040864918E1,-1.054084115E-2
2.041655323E1,-8.806032129E-4
2.042448780E1,-1.526346989E-2
2.043242237E1,-8.164295927E-3
2.044032643E1,-8.146500215E-3
2.044826100E1,-1.055045612E-2
2.045619557E1,-8.220784366E-3
2.046416065E1,-8.107943460E-3
2.047209522E1,-1.760844141E-2
2.048002980E1,-3.118867055E-3
2.048796436E1,-1.025547832E-2
2.049589894E1,-1.023991965E-2
2.050383351E1,-1.251995936E-2
2.051176808E1,-1.019044407E-2
2.051967213E1,-7.878779434E-3
2.052760670E1,-1.498500165E-2
2.053554127E1,-7.843617350E-3
2.054347584E1,-5.396270659E-3
2.055141041E1,-7.814149372E-3
2.055934498E1,-7.786159869E-3
2.056727955E1,-5.598383490E-3
2.057518360E1,-1.516621932E-2
2.058311817E1,-1.030062512E-2
2.059105274E1,-1.281825732E-2
2.059901783E1,-1.507706568E-2
2.060695240E1,-8.336375467E-4
2.061488697E1,-1.515069604E-2
2.062282154E1,-7.907639258E-3
2.063075611E1,-7.907412946E-3
2.063869068E1,-1.745087281E-2
2.064662525E1,-1.031914912E-2
2.065452931E1,8.792862296E-3
2.066246388E1,-1.050099358E-2
2.067042896E1,-1.289086509E-2
2.067836354E1,-1.055270433E-2
2.068632862E1,-8.240847848E-3
2.069426319E1,-8.447616361E-3
2.070219776E1,-8.489287458E-3
2.071013233E1,-6.123842206E-3
2.071806690E1,-8.527113125E-3
2.072600147E1,-1.334969047E-2
2.073390553E1,-1.095960103E-2
2.074184010E1,-2.035471238E-2
2.074977467E1,-1.547461189E-2
2.075767872E1,-8.208571933E-3
2.076561329E1,-8.262447082E-3
2.077354786E1,1.270326786E-3
2.078148243E1,-1.547843590E-2
2.078944752E1,-1.057784446E-2
2.079738209E1,-5.748066586E-3
2.080531666E1,-2.250736207E-2
2.081325123E1,-3.436638042E-3
2.082118580E1,-3.560968675E-3
2.082912037E1,-1.291809138E-3
2.083705494E1,-8.474415168E-3
2.084498951E1,-8.495194837E-3
2.085295460E1,-1.815848053E-2
2.086088917E1,-8.581444621E-3
2.086882374E1,-8.682078682E-3
2.087672779E1,-6.313166115E-3
2.088469288E1,-1.595061086E-2
2.089262745E1,-8.809680119E-3
2.090056202E1,-8.726102300E-3
2.090849659E1,-1.351644937E-2
2.091643116E1,-8.728276007E-3
2.092436573E1,-6.375132594E-3
2.093226979E1,-8.736127056E-3
2.094020436E1,7.161144167E-4
2.094813893E1,-8.777570911E-3
2.095604298E1,8.385293186E-4
2.096397755E1,-8.635932580E-3
2.097191212E1,-1.411652658E-3
2.097987721E1,-8.635473438E-3
2.098781178E1,9.413342923E-4
2.099571583E1,-1.345098671E-2
2.100368092E1,-1.480435487E-3
2.101158497E1,-8.704710752E-3
2.101951954E1,-2.295064181E-2
2.102745411E1,-8.525584824E-3
2.103538868E1,-8.463311009E-3
2.104332325E1,-1.079818234E-2
2.105122730E1,-1.089263335E-2
2.105916188E1,-3.710028715E-3
2.106709644E1,-3.628274426E-3
2.107496998E1,-1.070488244E-2
2.108290455E1,-3.590299748E-3
2.109083912E1,-1.784946211E-2
2.109877369E1,-3.566913307E-3
2.110670826E1,-2.024101093E-2
2.111467335E1,-5.834650714E-3
2.112260792E1,-1.539008133E-2
2.113054249E1,-1.057029143E-2
2.113847706E1,-1.519258320E-2
2.114641163E1,-1.041796990E-2
2.115434620E1,-1.038699225E-2
2.116228077E1,-1.269043237E-2
2.117018482E1,-1.269097440E-2
2.117811939E1,-1.019439753E-2
2.118605396E1,-5.269689485E-3
2.119395802E1,-7.622287609E-3
2.120189259E1,-1.713115908E-2
2.120982716E1,-2.883346751E-3
2.121779225E1,-1.012308709E-2
2.122572682E1,-1.244489197E-2
2.123366139E1,-5.262062885E-3
2.124159596E1,-1.244761981E-2
2.124953053E1,-5.182782188E-4
2.125746510E1,-1.006657630E-2
2.126539967E1,-7.613644935E-3
2.127330372E1,-9.901106358E-3
2.128123829E1,-1.717593521E-2
2.128917286E1,-2.727612853E-3
2.129710743E1,-7.474793587E-3
2.130504200E1,-1.218842249E-2
2.131300709E1,-2.596871927E-4
2.132094166E1,-2.653667238E-3
2.132887623E1,-1.457065344E-2
2.133681080E1,-2.168419212E-2
2.134474537E1,-7.278424222E-3
2.135267994E1,-2.406368963E-3
2.136061451E1,-7.195211481E-3
2.136854908E1,-9.649456479E-3
2.137648365E1,-9.659674019E-3
2.138441822E1,-9.721696377E-3
2.139229176E1,-7.265206426E-3
2.140022633E1,-4.829386715E-3
2.140816090E1,-1.653051376E-2
2.141609547E1,-1.178589649E-2
2.142406056E1,-1.417131629E-2
2.143199513E1,-1.396610588E-2
2.143992970E1,5.269639194E-3
2.144786427E1,-6.718930788E-3
2.145579884E1,-1.139346138E-2
2.146373341E1,-1.769371796E-3
2.147163746E1,-6.557555869E-3
2.147957203E1,-6.557772402E-3
2.148750660E1,-8.991220966E-3
2.149547169E1,-4.120146856E-3
2.150340626E1,-6.514566951E-3
2.151134083E1,-4.120802507E-3
2.151927540E1,-8.892240003E-3
2.152720997E1,-1.592783630E-2
2.153514454E1,-6.268572528E-3
2.154307911E1,-1.604720019E-3
2.155098316E1,-8.617036045E-3
2.155894825E1,-8.508570492E-3
2.156685230E1,-1.094400138E-2
2.157478688E1,-1.408106182E-3
2.158272144E1,-1.317446772E-2
2.159062550E1,-3.514671233E-3
2.159856007E1,-5.939376540E-3
2.160646412E1,-8.151257411E-3
2.161439869E1,-8.217917755E-3
2.162233326E1,-9.107640944E-4
2.163023731E1,-1.525467820E-2
2.163817188E1,-1.283419318E-2
2.164607594E1,-1.035123318E-2
2.165401051E1,-3.119319212E-3
2.166194508E1,-7.891383953E-3
2.166987965E1,-2.927316353E-3
2.167784474E1,-7.611923851E-3
2.168577931E1,-5.250809249E-3
2.169374439E1,1.927932259E-3
2.170167896E1,-1.471855678E-2
2.170961354E1,-1.229412295E-2
2.171754811E1,-2.717101015E-3
2.172545216E1,-2.716668416E-3
2.173338673E1,-5.134273320E-3
2.174135182E1,-5.176582839E-3
2.174925587E1,-3.886129707E-4
2.175719044E1,-7.612287533E-3
2.176515553E1,-1.244033407E-2
2.177309010E1,6.573199295E-3
2.178102467E1,-1.245330647E-2
2.178895924E1,-5.234694108E-4
2.179689381E1,-7.674289402E-3
2.180479786E1,-2.961175516E-3
2.181273243E1,-5.437518936E-3
2.182066700E1,6.450496148E-3
2.182860157E1,-8.987379260E-4
2.183653614E1,-5.713431630E-3
2.184444020E1,3.811073024E-3
2.185237476E1,-8.242080919E-3
2.186030934E1,-5.788508803E-3
2.186821339E1,-9.998921305E-4
2.187614796E1,-1.534555480E-2
2.188405201E1,-1.272319164E-2
2.189198658E1,-7.976071909E-3
2.189992115E1,-3.270344809E-3
2.190785572E1,-8.029827848E-3
2.191579029E1,-3.192592878E-3
2.192372486E1,-5.710915197E-3
2.193165943E1,-1.270150766E-2
2.193959400E1,-3.041598480E-3
2.194752857E1,-5.493635777E-3
2.195546314E1,-1.034951396E-2
2.196339771E1,-3.164673690E-3
2.197133229E1,-5.558875389E-3
2.197926686E1,-7.839351892E-3
2.198720143E1,-3.167205025E-3
2.199510548E1,-5.463833455E-3
2.200307057E1,-7.879830897E-3
2.201100514E1,-1.983802021E-2
2.201893971E1,-6.427490152E-4
2.202684376E1,-5.593285896E-4
2.203477833E1,-1.239829138E-2
2.204271290E1,-3.435607068E-4
2.205064747E1,-1.465557888E-2
2.205858204E1,-2.800473478E-3
2.206654713E1,-4.057334736E-4
2.207448170E1,-1.246483997E-2
2.208247730E1,-7.693524472E-3
2.209041188E1,-5.368654616E-3
2.209834644E1,-7.742107380E-3
2.210625050E1,1.783038490E-3
2.211418507E1,-7.723770104E-3
2.212208912E1,-1.011970546E-2
2.213002369E1,-7.777110673E-3
2.213795826E1,-7.818132639E-3
2.214589283E1,-1.490585506E-2
2.215382740E1,-1.246992499E-2
2.216173146E1,-1.727420837E-2
2.216966602E1,1.872312278E-3
2.217760060E1,-7.717019878E-3
2.218550465E1,-3.046435304E-3
2.219343922E1,-5.564222578E-3
2.220137379E1,-5.634550937E-3
2.220930836E1,-1.037631929E-2
2.221727345E1,-8.796113543E-4
2.222520802E1,-1.294213533E-2
2.223314259E1,-2.949833125E-2
2.224107716E1,1.502376981E-3
2.224901173E1,-8.132223040E-3
2.225694630E1,-3.468364943E-3
2.226485035E1,-1.067221723E-2
2.227278492E1,-1.318768784E-2
2.228068897E1,-6.117268931E-3
2.228862354E1,1.061154995E-3
2.229655812E1,-6.245783065E-3
2.230449269E1,-3.934576642E-3
2.231245777E1,-6.233430468E-3
2.232039234E1,8.663898334E-4
2.232832691E1,-1.345198788E-2
2.233626148E1,3.170278389E-3
2.234419605E1,6.930809468E-4
2.235213062E1,7.308362983E-4
2.236006520E1,-1.741141547E-3
2.236799976E1,-2.324219979E-2
2.237593434E1,-1.115212869E-2
2.238389942E1,-1.658106688E-3
2.239180348E1,-1.123369578E-2
2.239976856E1,-3.959819674E-3
2.240770313E1,-1.595867239E-2
2.241563770E1,-8.752088994E-3
2.242357228E1,-1.351834461E-2
2.243150684E1,-6.364656147E-3
2.243944142E1,-6.281344686E-3
2.244737957E1,-6.281554699E-3
2.245531414E1,-3.844885156E-3
2.246324871E1,-8.644046262E-3
2.247118328E1,-1.577761956E-3
2.247911785E1,-3.888866398E-3
2.248705242E1,-6.199757569E-3
2.249498699E1,-1.101164985E-2
2.250289104E1,-6.203193683E-3
2.251082561E1,-1.455498859E-3
2.251876018E1,-1.104550529E-2
2.252669475E1,-1.816244982E-2
2.253462932E1,-1.402618363E-3
2.254253338E1,3.427806310E-3
2.255046795E1,-8.519342169E-3
2.255840252E1,-1.375326887E-3
2.256636760E1,-1.092863269E-2
2.257430218E1,-1.565776393E-2
2.258226726E1,-1.075443812E-2
2.259020183E1,-1.292835549E-2
2.259813640E1,-1.286888402E-2
2.260607097E1,-1.291494258E-2
2.261400554E1,-1.994203776E-2
2.262194012E1,-1.040645968E-2
2.262987468E1,-1.037964225E-2
2.263780926E1,-8.026884869E-3
2.264574383E1,-8.420133963E-4
2.265367840E1,-3.195188940E-3
2.266161297E1,-8.817026392E-4
2.266954754E1,-1.050912775E-2
2.267745159E1,-1.293991134E-2
2.268538616E1,-8.062599227E-3
2.269332073E1,-9.183469228E-4
2.270122478E1,-1.279904507E-2
2.270915935E1,-3.211949486E-3
2.271706341E1,-8.082920685E-3
2.272499798E1,1.452857628E-3
2.273293255E1,-8.186221123E-3
2.274089764E1,-1.057666913E-2
2.274883221E1,-3.311909735E-3
2.275676678E1,-5.732369609E-3
2.276470135E1,-8.104352280E-3
2.277263592E1,-5.778104998E-3
2.278057049E1,-8.223333396E-3
2.278850506E1,-1.047922671E-2
2.279643963E1,-1.526008733E-2
2.280437420E1,-1.520187035E-2
2.281230877E1,-8.019471541E-3
2.282024334E1,-3.346688114E-3
2.282817791E1,-1.041183807E-2
2.283608196E1,-5.596331321E-3
2.284401653E1,-8.072897792E-3
2.285195110E1,-5.678901915E-3
2.285988567E1,-8.480693214E-4
2.286782024E1,-8.000822738E-3
2.287572430E1,-5.666201934E-3
2.288365886E1,-8.777985349E-4
2.289159344E1,-8.077096194E-3
2.289949749E1,-1.018683892E-3
2.290743206E1,-8.221425116E-3
2.291533611E1,-1.297878101E-2
2.292330120E1,-8.205669001E-3
2.293123577E1,-1.296015829E-2
2.293917034E1,-1.068335492E-3
2.294710491E1,-1.060985960E-2
2.295503948E1,3.672461491E-3
2.296297405E1,-5.961379036E-3
2.297093914E1,-6.149200257E-3
2.297887371E1,-2.040582895E-2
2.298680828E1,-1.288630534E-3
2.299474285E1,-1.453792676E-3
2.300267742E1,9.408192709E-4
2.301061199E1,-1.099909097E-2
2.301854656E1,9.699021466E-4
2.302648113E1,-6.114749704E-3
2.303441570E1,-8.550396189E-3
2.304235027E1,-1.091155224E-2
2.305028484E1,-1.334335655E-3
2.305818889E1,-1.335066278E-2
2.306612346E1,9.294534102E-4
2.307402752E1,1.012547407E-3
2.308196209E1,-3.799424507E-3
2.308989666E1,-8.711345494E-3
2.309780071E1,6.975880824E-4
2.310573528E1,-8.860309608E-3
2.311366985E1,-1.130580716E-2
2.312160442E1,-4.112096503E-3
2.312953899E1,-1.378996298E-2
2.313747356E1,-1.618143357E-2
2.314540813E1,-6.752601825E-3
2.315331218E1,-9.169336408E-3
2.316124676E1,-6.788489874E-3
2.316918133E1,-1.404928043E-2
2.317708538E1,-2.198090777E-3
2.318501995E1,-9.552174248E-3
2.319292400E1,-7.093924563E-3
2.320085857E1,-9.544299915E-3
2.320879314E1,2.421212848E-3
2.321669720E1,-1.420720480E-2
2.322463176E1,-1.665955596E-2
2.323253582E1,-4.671908915E-3
2.324047039E1,7.159138098E-3
2.324840496E1,-1.198790409E-2
2.325633953E1,-2.494514454E-3
2.326424358E1,-1.191161480E-2
2.327217815E1,-1.190617587E-2
2.328014324E1,-1.667416841E-2
2.328807781E1,-1.180504262E-2
2.329601238E1,-9.429092519E-3
2.330394695E1,-7.034474518E-3
2.331185100E1,-1.411314309E-2
2.331978557E1,-2.126199193E-2
2.332772014E1,-4.544023424E-3
2.333568523E1,-9.309763089E-3
2.334361980E1,-9.246203117E-3
2.335155437E1,-4.415727220E-3
2.335948894E1,-4.415309057E-3
2.336742351E1,-4.456334282E-3
2.337535808E1,-1.169122383E-2
2.338329265E1,-9.362378158E-3
2.339119671E1,-1.407279819E-2
2.339913128E1,-1.172382943E-2
2.340709636E1,-2.105369233E-3
2.341503094E1,-9.309438989E-3
2.342296551E1,-1.413864363E-2
2.343086956E1,4.965712316E-3
2.343880413E1,-9.287218563E-3
2.344673870E1,-9.245563298E-3
2.345467327E1,-2.062749118E-3
2.346260784E1,-4.374588374E-3
2.347054241E1,-4.498921800E-3
2.347850750E1,-4.457686562E-3
2.348644207E1,-1.395141520E-2
2.349437664E1,-6.935016252E-3
2.350231121E1,-9.333202615E-3
2.351024578E1,-6.959427148E-3
2.351818035E1,-6.902246270E-3
2.352611492E1,-1.401290204E-2
2.353404949E1,-1.150521822E-2
2.354198406E1,-2.010149881E-3
2.354988811E1,-9.213987738E-3
2.355782268E1,-9.139776230E-3
2.356575725E1,-9.188493714E-3
2.357366131E1,-6.835265551E-3
2.358162639E1,-4.416891839E-3
2.358959148E1,-6.727885455E-3
2.359752605E1,4.965863191E-4
2.360546062E1,-9.053906426E-3
2.361339519E1,-1.374554727E-2
2.362132976E1,-8.971909061E-3
2.362926433E1,-1.141455397E-2
2.363719890E1,-1.392095536E-2
2.364513347E1,-1.632520184E-2
2.365303753E1,-1.401576679E-2
2.366097210E1,-6.832530722E-3
2.366893718E1,-9.227153845E-3
2.367687176E1,-9.161434136E-3
2.368483684E1,-1.386712678E-2
2.369277141E1,-1.627321169E-2
2.370070598E1,-9.214460850E-3
2.370861004E1,-2.111385576E-3
2.371654461E1,-2.152881585E-3
2.372447918E1,-4.575742874E-3
2.373241375E1,1.291455701E-4
2.374034832E1,-1.411137637E-2
2.374828289E1,-9.243945591E-3
2.375621746E1,-1.169501245E-2
2.376415203E1,2.762079239E-4
2.377205608E1,3.596278839E-4
2.377999065E1,-6.882251240E-3
2.378789471E1,-1.643034257E-2
2.379582928E1,-6.879805122E-3
2.380376385E1,-9.296730161E-3
2.381169842E1,-2.151376102E-3
2.381963299E1,-7.063423749E-3
2.382759807E1,-9.478628635E-3
2.383553264E1,-2.331146970E-3
2.384346722E1,-1.671392843E-2
2.385140178E1,-9.449396282E-3
2.385933636E1,-9.448974393E-3
2.386724041E1,-7.025895640E-3
2.387517498E1,-7.012743037E-3
2.388310955E1,-4.647458903E-3
2.389104412E1,-4.563183058E-3
2.389897869E1,-4.645542707E-3
2.390688274E1,-6.997449789E-3
2.391481731E1,-2.249696758E-3
2.392275188E1,-9.307917207E-3
2.393065594E1,-1.170316152E-2
2.393859051E1,-1.409290358E-2
2.394652508E1,-1.404884458E-2
2.395449016E1,-9.231356904E-3
2.396242473E1,-1.159410551E-2
2.397035930E1,-6.829426158E-3
2.397829388E1,-9.194839746E-3
2.398622845E1,-2.128843591E-2
2.399416302E1,-6.840336137E-3
2.400209759E1,3.011012450E-4
2.401000164E1,-2.217912581E-3
2.401796673E1,-1.179251075E-2
2.402590130E1,-9.367860854E-3
2.403383587E1,2.562338021E-3
2.404180096E1,-1.669096388E-2
2.404970501E1,-7.137417328E-3
2.405767010E1,-1.672459394E-2
2.406560467E1,-1.427464373E-2
2.407353924E1,-1.660843566E-2
2.408147381E1,-1.644184440E-2
2.408940838E1,-9.299991652E-3
2.409734295E1,-9.257253259E-3
2.410524700E1,-6.918774918E-3
2.411318157E1,-1.186635904E-2
2.412111614E1,-7.077869959E-3
2.412902019E1,-9.472072124E-3
2.413695476E1,-7.147488650E-3
2.414491985E1,-1.198427379E-2
2.415285442E1,-7.179717533E-3
2.416078899E1,-4.729450680E-3
2.416872356E1,-1.440452598E-2
2.417665813E1,9.581656195E-3
2.418456218E1,-3.631133586E-5
2.419252727E1,-4.866800271E-3
2.420046184E1,-1.671424694E-2
2.420836590E1,-1.189872250E-2
2.421630047E1,-1.182260737E-2
2.422423504E1,-9.329499677E-3
2.423216961E1,-1.647511683E-2
2.424010418E1,-6.897882558E-3
2.424800823E1,-2.109908964E-3
2.425591228E1,-1.410680078E-2
2.426384685E1,-1.413664408E-2
2.427181194E1,-4.465360660E-3
2.427974651E1,-6.915947888E-3
2.428768108E1,-4.563349765E-3
2.429561565E1,-4.675751552E-3
2.430355022E1,-4.841530230E-3
2.431148479E1,-7.096827030E-3
2.431941936E1,-1.433978230E-2
2.432732342E1,-1.428054366E-2
2.433525799E1,-1.200504415E-2
2.434322307E1,-2.142538130E-2
2.435115764E1,-7.164022420E-3
2.435912273E1,-4.852708895E-3
2.436702678E1,-4.977305420E-3
2.437499187E1,-1.942393743E-2
2.438292644E1,-1.454224810E-2
2.439086101E1,-1.700027846E-2
2.439879558E1,-1.221183129E-2
2.440673015E1,-1.449930761E-2
2.441466472E1,-2.579232678E-4
2.442256878E1,-1.936547272E-2
2.443050335E1,4.493974615E-3
2.443843792E1,-1.225967333E-2
2.444637249E1,-1.230483688E-2
2.445433758E1,-1.002125442E-2
2.446227215E1,-4.444476217E-4
2.447020672E1,-7.485021371E-3
2.447814129E1,-7.633840200E-3
2.448607586E1,-6.180824712E-4
2.449401043E1,-7.759827189E-3
2.450194500E1,-3.013299312E-3
2.450987957E1,-1.262914017E-2
2.451781414E1,-7.799292449E-3
2.452574871E1,-1.270860992E-2
2.453368328E1,-7.373862900E-4
2.454158733E1,-1.033444703E-2
2.454952190E1,-3.151841462E-3
2.455745647E1,-3.235265613E-3
2.456533001E1,-1.029500552E-2
2.457329510E1,-3.111974336E-3
2.458122967E1,-7.805774920E-3
2.458916424E1,-1.505662687E-2
2.459712932E1,-1.023462974E-2
2.460506389E1,-3.176190890E-3
2.461299846E1,-1.520521939E-2
2.462093304E1,-1.767556742E-2
2.462886760E1,-1.038823090E-2
2.463680218E1,-1.760817319E-2
2.464470623E1,-7.930683903E-3
2.465267132E1,-1.028707251E-2
2.466060589E1,-7.850401103E-3
2.466857097E1,-7.836188190E-3
2.467650554E1,-1.023405790E-2
2.468444012E1,-1.754429936E-2
2.469237468E1,-1.282018702E-2
2.470030926E1,-5.658817943E-3
2.470824383E1,-1.993149519E-2
2.471617840E1,-3.297111951E-3
2.472408245E1,-7.985494100E-3
2.473201702E1,-1.989721507E-2
2.473995159E1,1.526266336E-3
2.474788616E1,-8.132995106E-3
2.475585125E1,-1.056308858E-2
2.476378582E1,-1.287742797E-2
2.477172039E1,-1.061507873E-2
2.477965496E1,-8.245586418E-3
2.478758953E1,-3.457183018E-3
2.479552410E1,-5.925127771E-3
2.480342815E1,-8.374840952E-3
2.481136272E1,-1.325745974E-2
2.481926678E1,-6.009813864E-3
2.482720135E1,-2.257564291E-2
2.483513592E1,-1.541145332E-2
2.484307049E1,-5.834646989E-3
2.485100506E1,-3.481511027E-3
2.485893963E1,-1.541069523E-2
2.486690472E1,-8.367603645E-3
2.487483928E1,-8.450275287E-3
2.488277386E1,-6.180883851E-3
2.489070843E1,-1.341266464E-2
2.489864300E1,-1.107898355E-2
2.490657757E1,-1.335179154E-2
2.491451214E1,-8.537879214E-3
2.492241619E1,9.975424036E-4
2.493035076E1,-1.808736473E-2
2.493825481E1,-1.805185154E-2
2.494621990E1,-8.495158516E-3
2.495415447E1,-3.665370867E-3
2.496211956E1,-1.798514649E-2
2.497005413E1,-6.044487935E-3
2.497798870E1,-3.683920018E-3
2.498592327E1,-1.799969003E-2
2.499385784E1,-1.323565189E-2
2.500179241E1,-3.659063950E-3
2.500972698E1,-8.421124890E-3
2.501766155E1,-1.328735612E-2
2.502559612E1,-1.795616001E-2
2.503353069E1,-1.065872796E-2
2.504146526E1,-8.347951807E-3
2.504939983E1,-3.559549339E-3
2.505733440E1,1.104302704E-3
2.506526897E1,-8.535113186E-3
2.507320354E1,-1.821023971E-2
2.508110760E1,-1.098585501E-2
2.508904217E1,-1.575563289E-2
2.509694622E1,-8.591836318E-3
2.510488079E1,-8.647344075E-3
2.511281536E1,-8.606337942E-3
2.512071941E1,-1.382785384E-3
2.512865398E1,1.011198387E-3
2.513658855E1,-1.343523711E-2
2.514452312E1,-3.900311887E-3
2.515245769E1,-1.109450310E-2
2.516036175E1,-1.096600108E-2
2.516829632E1,-8.613361046E-3
2.517623089E1,-3.907627426E-3
2.518419597E1,-8.753710426E-3
2.519213054E1,-4.089420661E-3
2.520006512E1,-1.121503673E-2
2.520799968E1,-1.115373708E-2
2.521590374E1,-8.717874065E-3
2.522383831E1,-1.325919759E-2
2.523177288E1,-1.313857362E-2
2.523970745E1,-6.080518942E-3
2.524764202E1,-8.474720642E-3
2.525560711E1,-1.075806841E-2
2.526354168E1,-8.293796331E-3
2.527147625E1,-1.299550943E-2
2.527941082E1,-8.140939288E-3
2.528734539E1,-1.763358153E-2
2.529527996E1,-8.735167794E-4
2.530321453E1,-8.030664176E-3
2.531114910E1,-2.458167821E-2
2.531908367E1,-1.021323912E-2
2.532701824E1,-1.490080636E-2
2.533495281E1,-5.352998618E-3
2.534291790E1,-1.016051974E-2
2.535085247E1,-1.497616805E-2
2.535878704E1,1.908055507E-3
2.536672161E1,-1.229782775E-2
2.537465618E1,-2.754068002E-3
2.538259075E1,-7.583478000E-3
2.539052532E1,-4.008742981E-4
2.539845989E1,-9.977702051E-3
2.540639446E1,-5.189296324E-3
2.541429851E1,-7.401757408E-3
2.542223308E1,2.293969970E-3
2.543016765E1,-4.722638521E-3
2.543810222E1,-9.522350505E-3
2.544606731E1,-9.618757293E-3
2.545400188E1,-1.189268008E-2
2.546193645E1,-4.668631125E-3
2.546987102E1,-2.268128097E-3
2.547780559E1,-9.538942948E-3
2.548574016E1,-1.193469018E-2
2.549367473E1,-1.436817646E-2
2.550160930E1,-1.911701821E-2
2.550954388E1,-7.126692683E-3
2.551744793E1,-9.490851313E-3
2.552538250E1,-2.267553471E-3
2.553328655E1,8.460786194E-5
2.554122112E1,-1.181273535E-2
2.554915569E1,-7.001404651E-3
2.555705974E1,-9.395606816E-3
2.556499431E1,-7.083656732E-3
2.557292889E1,-1.178839616E-2
2.558089397E1,-1.419940311E-2
2.558882854E1,-4.539054353E-3
2.559676311E1,-2.061427571E-3
2.560469768E1,-6.767042913E-3
2.561263225E1,-1.632598415E-2
2.562056682E1,-1.390467398E-2
2.562850139E1,-6.608448923E-3
2.563643596E1,-6.732603535E-3
2.564437054E1,-6.733469199E-3
2.565230510E1,-1.390119083E-2
2.566023968E1,-1.138426270E-2
2.566817425E1,3.064054064E-3
2.567607830E1,-8.906736970E-3
2.568401287E1,-6.410072558E-3
2.569197796E1,-1.369628776E-2
2.569994304E1,-6.388870068E-3
2.570787762E1,-6.362176500E-3
2.571581218E1,5.692039151E-3
2.572374676E1,-1.114018820E-2
2.573168133E1,-1.645620912E-3
2.573961590E1,-6.433807313E-3
2.574755047E1,-1.127186790E-2
2.575545452E1,-6.483027246E-3
2.576338909E1,-2.786099352E-2
2.577132366E1,-6.246742327E-3
2.577925823E1,-1.566851325E-2
2.578722332E1,-1.334722061E-2
2.579509685E1,-8.599983528E-3
2.580303142E1,-3.841021098E-3
2.581099651E1,-6.303215865E-3
2.581893108E1,-1.815371215E-2
2.582686565E1,-1.477190759E-3
2.583480022E1,-8.675200865E-3
2.584273479E1,-1.574487239E-2
2.585063885E1,-1.088436693E-2
2.585857342E1,-1.389914658E-3
2.586650799E1,9.211832657E-4
2.587444256E1,-1.089370809E-2
2.588240764E1,-3.793242387E-3
2.589034222E1,-6.174664944E-3
2.589827678E1,9.662820958E-4
2.590621136E1,-1.317733899E-2
2.591414593E1,-5.994733423E-3
2.592208050E1,-3.600315191E-3
2.592998455E1,-3.600099124E-3
2.593791912E1,-5.862530321E-3
2.594585369E1,-1.065093372E-2
2.595378826E1,-8.231475949E-3
2.596172283E1,-1.045893691E-2
2.596962688E1,-8.105745539E-3
2.597756145E1,-3.234772012E-3
2.598549602E1,-1.285137236E-2
2.599340008E1,-1.277562045E-2
2.600133465E1,-1.274655666E-2
2.600926922E1,-8.145881817E-3
2.601720379E1,-5.659927148E-3
2.602513836E1,-1.750726067E-2
2.603310345E1,-7.929803804E-3
2.604103802E1,-7.866050117E-3
2.604897259E1,-5.531740375E-3
2.605690716E1,-7.926158607E-3
2.606484173E1,-7.884930819E-3
2.607277630E1,-7.843325846E-3
2.608071087E1,-1.498159207E-2
2.608861492E1,-5.312430672E-3
2.609654949E1,-1.006483566E-2
2.610448406E1,-5.276431795E-3
2.611241863E1,-2.881580032E-3
2.612035320E1,1.906823833E-3
2.612825725E1,-5.262234714E-3
2.613619182E1,-7.674134336E-3
2.614412639E1,-2.844502218E-3
2.615203045E1,-5.330755375E-4
2.615996502E1,-5.280192941E-3
2.616786907E1,-4.505594261E-4
2.617580364E1,-7.591879927E-3
2.618373821E1,-1.937628910E-2
2.619164226E1,-3.054514527E-4
2.619957683E1,-3.459160216E-4
2.620751140E1,-9.851181880E-3
2.621547649E1,-9.841298684E-3
2.622341106E1,-5.072422791E-3
2.623134563E1,-9.704833850E-3
2.623928020E1,2.101251390E-3
2.624721477E1,-9.882651269E-3
2.625514934E1,-7.560648490E-3
2.626308391E1,-1.232102327E-2
2.627101848E1,-4.721391015E-4
2.627895305E1,-1.240757853E-2
2.628685711E1,-4.365704954E-4
2.629479168E1,-5.049065687E-3
2.630272625E1,6.838951260E-3
2.631069134E1,2.216757741E-3
2.631862591E1,-1.207163371E-2
2.632656048E1,-7.307643536E-3
2.633449505E1,-9.757658467E-3
2.634242962E1,-7.488267962E-3
2.635039471E1,-2.692790702E-3
2.635835979E1,-5.128159188E-3
2.636632488E1,-5.210928619E-3
2.637425945E1,-2.145492472E-4
2.638219402E1,-7.397154346E-3
2.639012859E1,2.137613017E-3
2.639809368E1,-1.686750911E-2
2.640602825E1,-1.907013357E-4
2.641396282E1,-2.791692503E-3
2.642189739E1,-1.241931971E-2
2.642983196E1,-5.194674246E-3
2.643776653E1,-2.790082246E-3
2.644570110E1,-9.995425120E-3
2.645363567E1,-7.535522804E-3
2.646157024E1,-2.704806160E-3
2.646947430E1,-1.456969418E-2
2.647740886E1,-5.034012720E-3
2.648531292E1,-5.022217520E-3
2.649324749E1,-7.333736401E-3
2.650118206E1,-1.208910905E-2
2.650911663E1,-2.629093826E-3
2.651708172E1,-7.252138108E-3
2.652501629E1,-7.335027680E-3
2.653295086E1,-4.887753166E-3
2.654088543E1,-4.887535702E-3
2.654882000E1,-4.804547410E-3
2.655675457E1,-9.574867785E-3
2.656465862E1,-2.432988491E-3
2.657259319E1,-7.221392356E-3
2.658052776E1,-4.743863828E-3
2.658846233E1,-4.702040926E-3
2.659639690E1,-4.661190324E-3
2.660433147E1,-4.660537001E-3
2.661229656E1,-4.701981321E-3
2.662023113E1,-7.096400019E-3
2.662816570E1,-4.618772771E-3
2.663610027E1,4.751609173E-3
2.664400432E1,-7.802154869E-5
2.665193889E1,-4.980281461E-3
2.665987346E1,-4.980063997E-3
2.666777752E1,-5.051248707E-3
2.667571209E1,-2.630623057E-4
2.668364666E1,-2.610396128E-3
2.669158123E1,-1.214778237E-2
2.669951580E1,-7.400607225E-3
2.670748089E1,-9.760787711E-3
2.671541546E1,-7.391601335E-3
2.672335003E1,-2.727965824E-3
2.673128460E1,-4.572286271E-4
2.673921917E1,-9.974196553E-3
2.674715374E1,-7.556172088E-3
2.675508831E1,-1.005054731E-2
2.676302288E1,1.920024399E-3
2.677095745E1,-2.817056607E-3
2.677889202E1,4.406992812E-3
2.678679607E1,-7.522413973E-3
2.679476116E1,-1.709367894E-2
2.680269573E1,-1.214422099E-2
2.681063030E1,-1.689527556E-2
2.681856487E1,-7.345917169E-3
2.682652996E1,-4.951497074E-3
2.683446453E1,-7.318520918E-3
2.684239910E1,-9.597916156E-3
2.685033367E1,-1.191301271E-2
2.685826824E1,-4.772508983E-3
2.686620281E1,-7.208314724E-3
2.687413738E1,-9.664847516E-3
2.688204143E1,-4.834343679E-3
2.688997600E1,-9.606720880E-3
2.689791057E1,-7.212519646E-3
2.690584514E1,1.227902249E-5
2.691377972E1,-7.169890217E-3
2.692168377E1,-9.584773332E-3
2.692961834E1,7.175073959E-3
2.693755291E1,-7.219137158E-3
2.694545696E1,4.794135224E-3
2.695339153E1,6.165355444E-6
2.696132610E1,-1.201172359E-2
2.696926067E1,-7.223101333E-3
2.697722576E1,-7.197986823E-3
2.698516033E1,4.731635097E-3
2.699309490E1,-4.927740898E-3
2.700102947E1,4.731953610E-3
2.700896404E1,-7.185154594E-3
2.701689861E1,-9.566733614E-3
2.702480266E1,-4.694903269E-3
2.703273723E1,-7.028909400E-3
2.704064129E1,3.001745790E-5
2.704857586E1,-1.191320550E-2
2.705651043E1,-4.730382003E-3
2.706444500E1,-4.717057105E-3
2.707241009E1,-1.178524550E-2
2.708034466E1,-4.602640867E-3
2.708830974E1,2.490698826E-3
2.709624431E1,-4.608578514E-3
2.710417889E1,-2.214377746E-3
2.711211346E1,-7.069159765E-3
2.712004803E1,2.549090888E-3
2.712798260E1,-1.649892889E-2
2.713591717E1,-9.274912067E-3
2.714382122E1,-9.241459891E-3
2.715175579E1,-1.976168714E-3
2.715969036E1,-4.245121032E-3
2.716762493E1,-6.638448220E-3
2.717555950E1,-6.637793966E-3
2.718352459E1,-9.095108137E-3
2.719145916E1,-1.379775442E-2
2.719939373E1,-1.141352206E-2
2.720732830E1,-1.142555661E-2
2.721526287E1,-1.611375622E-2
2.722319744E1,-6.599172950E-3
2.723113201E1,-1.132218912E-2
2.723903606E1,-1.366828196E-2
2.724697063E1,-1.123784296E-2
2.725490520E1,-8.722174913E-3
2.726283977E1,-3.963747527E-3
2.727080486E1,7.005836815E-4
2.727873943E1,7.834723219E-4
2.728667400E1,-4.046811722E-3
2.729460857E1,6.591393612E-4
2.730254314E1,-9.042041376E-3
2.731047771E1,-1.900504343E-3
2.731838176E1,-1.860050671E-2
2.732634685E1,-1.372321695E-2
2.733428142E1,-1.137790270E-2
2.734224651E1,-4.195079207E-3
2.735018108E1,5.935402587E-4
2.735808514E1,-1.877621282E-3
2.736601971E1,2.910565585E-3
2.737395428E1,-1.384128816E-2
2.738188885E1,-6.783712190E-3
2.738982342E1,9.991033003E-3
2.739775799E1,-9.084238671E-3
2.740569256E1,-1.943077426E-3
2.741362713E1,-6.731697358E-3
2.742156170E1,-4.254288040E-3
2.742949627E1,-8.938688785E-3
2.743740032E1,-1.372363605E-2
2.744536541E1,7.837970741E-3
2.745329998E1,-1.739052590E-3
2.746123455E1,-8.984101936E-3
2.746916912E1,-9.149240330E-3
2.747710369E1,4.673725925E-4
2.748503826E1,-6.674221717E-3
2.749297283E1,-1.384467632E-2
2.750087688E1,-1.909292303E-3
2.750881145E1,-1.910373569E-3
2.751674602E1,-9.062469937E-3
2.752471111E1,-9.036784992E-3
2.753264568E1,-6.703214254E-3
2.754058025E1,-6.870286539E-3
2.754851482E1,-6.828349084E-3
2.755644939E1,-4.475811031E-3
2.756438396E1,-6.828786340E-3
2.757231853E1,-4.394227173E-3
2.758025310E1,2.705388237E-3
2.758818767E1,7.473727223E-3
2.759609173E1,-9.307366796E-3
2.760402630E1,2.745994367E-3
2.761196087E1,-1.155036874E-2
2.761983440E1,-6.596205756E-3
2.762779949E1,-4.324948881E-3
2.763573406E1,-6.831554696E-3
2.764366863E1,-9.268068708E-3
2.765163372E1,-6.874299608E-3
2.765956829E1,-6.769314408E-3
2.766750286E1,3.717909567E-4
2.767540691E1,-6.757896394E-3
2.768334148E1,-2.005341463E-3
2.769127605E1,-1.153004821E-2
2.769921062E1,-1.911041327E-3
2.770714519E1,7.524950430E-3
2.771504925E1,2.694671042E-3
2.772298382E1,-9.212853387E-3
2.773091839E1,-4.466271959E-3
2.773882244E1,-6.792873610E-3
2.774675701E1,-9.249320254E-3
2.775469158E1,-1.980630681E-3
2.776265667E1,-4.441450350E-3
2.777059124E1,-4.505792167E-3
2.777852581E1,-9.229278192E-3
2.778646038E1,-2.046673559E-3
2.779439495E1,-9.146828204E-3
2.780232952E1,-6.699824240E-3
2.781026409E1,-6.682921667E-3
2.781816814E1,-1.381543465E-2
2.782610271E1,-6.738826167E-3
2.783403728E1,-1.141502708E-2
2.784197185E1,-1.621635631E-2
2.784993694E1,-1.975259278E-3
2.785784099E1,2.646287438E-3
2.786580608E1,-9.216370061E-3
2.787374065E1,-6.930619478E-3
2.788167522E1,-2.131689899E-2
2.788960979E1,-4.682039376E-3
2.789754436E1,1.904531382E-4
2.790547893E1,-1.421915367E-2
2.791338299E1,-7.232268341E-3
2.792131756E1,4.687699955E-3
2.792925213E1,-4.930769093E-3
2.793715618E1,-7.390488870E-3
2.794509075E1,-7.514563389E-3
2.795299480E1,-9.919080883E-3
2.796092937E1,-7.665746845E-3
2.796889446E1,-7.665746845E-3
2.797685955E1,-6.086505018E-4
2.798479412E1,-7.816274650E-3
2.799272869E1,-7.857065648E-3
2.800066326E1,4.072497599E-3
2.800859783E1,4.155385774E-3
2.801653240E1,-6.323591806E-4
2.802446697E1,-7.814964280E-3
2.803237102E1,-1.265312545E-2
2.804030559E1,-3.199738450E-3
2.804824016E1,-8.011730388E-3
2.805614422E1,-1.287721936E-2
2.806404827E1,-8.022800088E-3
2.807195232E1,-8.005740121E-3
2.807991741E1,-1.284245774E-2
2.808785198E1,-1.038383693E-2
2.809581707E1,-1.274692081E-2
2.810375164E1,-5.564316176E-3
2.811168621E1,-7.739979774E-4
2.811962078E1,-7.998486981E-3
2.812755535E1,-5.604284815E-3
2.813548992E1,-3.335114103E-3
2.814342449E1,-1.057955436E-2
2.815132854E1,-5.832815077E-3
2.815926311E1,-5.915820599E-3
2.816722820E1,-3.470552154E-3
2.817519329E1,-1.309366524E-2
2.818312786E1,-8.440418169E-3
2.819106243E1,-6.004773080E-3
2.819899700E1,-5.991209764E-3
2.820693157E1,1.232623123E-3
2.821483562E1,-1.053347159E-2
2.822277019E1,-1.049660798E-2
2.823070476E1,-5.832098424E-3
2.823866985E1,-3.514014184E-3
2.824660442E1,-3.514015581E-3
2.825453899E1,-1.309556235E-2
2.826247356E1,-3.397030756E-3
2.827040813E1,1.391372643E-3
2.827834270E1,-1.002608798E-3
2.828627727E1,-9.588706307E-4
2.829418133E1,-8.120554499E-3
2.830211590E1,-8.559171110E-4
2.831005047E1,-8.973609656E-4
2.831798504E1,-8.122287691E-3
2.832595013E1,-5.769970361E-3
2.833382366E1,-1.762812398E-2
2.834175823E1,1.567268278E-3
2.834969280E1,-7.850504480E-4
2.835765789E1,-3.303584643E-3
2.836559246E1,-7.852688432E-4
2.837352703E1,-7.967655547E-3
2.838146160E1,-7.433285937E-4
2.838939617E1,-1.522353571E-2
2.839733074E1,-8.181896061E-3
2.840526531E1,-1.054869033E-2
2.841316936E1,-3.491334617E-3
2.842110393E1,-1.549313962E-2
2.842900799E1,-8.278094232E-3
2.843697307E1,-1.540799253E-2
2.844490764E1,-1.293515414E-2
2.845281170E1,-8.313164115E-3
2.846074627E1,-2.013608813E-2
2.846868084E1,-1.304193959E-2
2.847661541E1,-5.776327569E-3
2.848454998E1,-8.633737452E-4
2.849248455E1,-5.637832917E-3
2.850041912E1,-5.720185582E-3
2.850832317E1,-1.527920738E-2
2.851625774E1,-1.755822450E-2
2.852422283E1,-5.529802293E-3
2.853215740E1,-8.006770164E-3
2.854009197E1,-9.471462108E-4
2.854802654E1,-5.610996857E-3
2.855596111E1,-5.528548732E-3
2.856389568E1,-1.032540295E-2
2.857179973E1,-5.702974740E-3
2.857973430E1,-1.289222855E-2
2.858766888E1,-1.518292539E-2
2.859563396E1,3.846354317E-3
2.860356853E1,-1.524642203E-2
2.861150310E1,-8.086780086E-3
2.861943767E1,-5.692139734E-3
2.862737224E1,-8.110565133E-3
2.863530681E1,-8.042468689E-3
2.864324139E1,1.368780155E-3
2.865117596E1,-5.795263685E-3
2.865911053E1,-1.537030935E-2
2.866704510E1,-5.752059165E-3
2.867497967E1,-5.834728479E-3
2.868291424E1,-9.634355083E-4
2.869081829E1,-1.046204008E-3
2.869875286E1,-1.128672622E-3
2.870665691E1,-8.269613609E-3
2.871459148E1,1.304126810E-3
2.872252605E1,-1.067603845E-2
2.873043011E1,-5.929457489E-3
2.873836468E1,-6.053312216E-3
2.874629925E1,-1.306571532E-3
2.875420330E1,-1.322293095E-2
2.876213787E1,-2.038658224E-2
2.877007244E1,-1.357777975E-3
2.877803753E1,-1.564552635E-2
2.878597210E1,-3.757188562E-3
2.879390667E1,-1.362549141E-3
2.880184124E1,-1.340029761E-2
2.880977581E1,-1.580584794E-2
2.881771038E1,-8.556226268E-3
2.882564495E1,-3.808829002E-3
2.883357952E1,-1.335118711E-2
2.884151409E1,-6.168146618E-3
2.884944866E1,-1.091815159E-2
2.885738323E1,-1.340910327E-3
2.886528728E1,-8.530282415E-3
2.887322185E1,-8.547080681E-3
2.888115642E1,-8.527807891E-3
2.888909099E1,-1.091896836E-2
2.889705608E1,-8.606682532E-3
2.890499065E1,-1.592074335E-2
2.891292522E1,-3.908073064E-3
2.892085979E1,-1.819247007E-2
2.892879436E1,-6.245289464E-3
2.893672893E1,-6.203569006E-3
2.894463299E1,-8.474873379E-3
2.895256756E1,-1.313569956E-2
2.896050213E1,5.934926216E-3
2.896843670E1,-8.449295536E-3
2.897637127E1,-1.344174147E-3
2.898430584E1,-6.115160417E-3
2.899224041E1,-8.426474407E-3
2.900017498E1,-3.596407361E-3
2.900810955E1,-3.595969640E-3
2.901607464E1,-1.066792943E-2
2.902397869E1,-8.292660117E-3
2.903194378E1,6.146739703E-3
2.903987835E1,-1.300687343E-2
2.904781292E1,-5.907475017E-3
2.905574749E1,-1.118639018E-3
2.906368206E1,-3.586706240E-3
2.907161663E1,-8.291788399E-3
2.907955120E1,-1.150625758E-3
2.908745525E1,-5.928297061E-3
2.909538982E1,3.731078468E-3
2.910332439E1,-1.539981738E-2
2.911125896E1,-1.058172155E-2
2.911919353E1,-1.004914753E-3
2.912712810E1,-3.565531690E-3
2.913509319E1,-6.042519584E-3
2.914302776E1,-1.125001814E-3
2.915099285E1,-8.224500343E-3
2.915892742E1,-5.871742032E-3
2.916686199E1,-5.857488140E-3
2.917479656E1,-1.534204371E-2
2.918273113E1,-1.524091512E-2
2.919066570E1,-1.526659075E-2
2.919860027E1,-1.037437283E-2
2.920650432E1,1.638239250E-3
2.921443889E1,-1.274784468E-2
2.922237346E1,-5.589928478E-3
2.923030804E1,1.628521364E-3
2.923827312E1,-1.044591144E-2
2.924620769E1,-1.525467634E-2
2.925414226E1,-1.281762868E-2
2.926207683E1,-1.035476662E-2
2.927001140E1,-1.507389732E-2
2.927794597E1,-6.251432933E-4
2.928588054E1,-5.455149803E-3
2.929381512E1,-1.260231156E-2
2.930174968E1,-7.882228121E-3
2.930968426E1,1.691150945E-3
2.931761883E1,-7.926227525E-3
2.932552288E1,-7.898306474E-3
2.933345745E1,-1.277354546E-2
2.934139202E1,-3.320853692E-3
2.934932659E1,-8.191928267E-3
2.935729168E1,-1.059972122E-2
2.936522625E1,-1.314435527E-2
2.937316082E1,-1.172913238E-3
2.938109539E1,-8.380224928E-3
2.938902996E1,-1.538680680E-2
2.939696453E1,-3.499327693E-3
2.940486858E1,-1.105125993E-3
2.941283367E1,-1.300060563E-2
2.942076824E1,-8.230138570E-3
2.942870281E1,3.824188840E-3
2.943663738E1,-8.105374873E-3
2.944460247E1,-5.669353995E-3
2.945253704E1,-1.289563440E-2
2.946047161E1,-8.085487410E-3
2.946840618E1,-1.287018508E-2
2.947634075E1,-1.286938041E-2
2.948424480E1,6.231680512E-3
2.949217937E1,-1.042329706E-2
2.950014446E1,-9.291619062E-4
2.950807903E1,-8.081097156E-3
2.951601360E1,-9.397198446E-4
2.952394817E1,-5.587439053E-3
2.953188274E1,-3.102739342E-3
2.953978680E1,-7.914284244E-3
2.954772136E1,4.015494138E-3
2.955565594E1,-7.897909731E-3
2.956355999E1,-7.544276305E-4
2.957149456E1,-5.518817808E-3
2.957942913E1,-5.519033875E-3
2.958736370E1,-1.266425848E-2
2.959532879E1,4.002724774E-3
2.960326336E1,-8.685514331E-4
2.961119793E1,-5.657171365E-3
2.961910198E1,-1.530654356E-2
2.962703655E1,-8.176456206E-3
2.963497112E1,-3.388052806E-3
2.964290569E1,-3.429656383E-3
2.965087078E1,-8.151510730E-3
2.965880535E1,-5.828454159E-3
2.966673992E1,-3.558368888E-3
2.967467449E1,-1.290541515E-2
2.968260906E1,-1.756474003E-2
2.969054363E1,-8.070504293E-3
2.969844768E1,-1.024389360E-2
2.970638225E1,-1.028095558E-2
2.971431682E1,-8.280510083E-4
2.972225139E1,-1.045913529E-2
2.973018596E1,-3.317601513E-3
2.973815105E1,-1.046192180E-2
2.974608562E1,-5.673088599E-3
2.975402019E1,-8.108518086E-3
2.976189373E1,-2.234907448E-2
2.976982830E1,3.987358417E-3
2.977776287E1,-8.839331567E-4
2.978569744E1,-1.505748183E-2
2.979363201E1,-7.833649404E-3
2.980159710E1,-5.480185151E-3
2.980953167E1,-5.355900154E-3
2.981746624E1,-1.236813143E-2
2.982540081E1,-2.708435990E-3
2.983333538E1,-7.621604484E-3
2.984126995E1,-5.164380185E-3
2.984920452E1,-1.470373571E-2
2.985710857E1,-5.126928911E-3
2.986504314E1,-7.480278146E-3
2.987297771E1,-1.709096506E-2
2.988088176E1,-7.526886649E-3
2.988881634E1,-2.778527793E-3
2.989675091E1,-3.838897683E-4
2.990468548E1,-2.819752321E-3
2.991265056E1,1.803307328E-3
2.992052410E1,-3.026698250E-3
2.992845867E1,-1.739479601E-2
2.993636272E1,-5.274800584E-3
2.994429729E1,-2.954707947E-3
2.995223186E1,-1.236804761E-2
2.996019695E1,-1.468206663E-2
2.996813152E1,4.471329972E-3
2.997606609E1,-9.866166860E-3
2.998400066E1,-4.139100201E-4
2.999193523E1,-1.247980446E-2
2.999986980E1,4.320992623E-3
3.000780437E1,-5.912655033E-4
3.001573894E1,-1.010248158E-2
3.002367351E1,-1.465822756E-2
3.003160808E1,-2.645773813E-3
3.003951214E1,-2.176422253E-2
3.004744671E1,-9.825816378E-3
3.005538128E1,-1.451741718E-2
3.006331585E1,2.366983797E-3
3.007125042E1,-5.004221573E-3
3.007915447E1,-7.439807989E-3
3.008711956E1,-1.468438562E-2
3.009502361E1,-4.982328974E-3
3.010295818E1,-5.064898636E-3
3.011089275E1,-1.209619083E-2
3.011885784E1,-2.911575139E-4
3.012679241E1,-1.213681791E-2
3.013472698E1,-1.452063397E-2
3.014266155E1,-1.701232232E-2
3.015059612E1,-5.150022451E-3
3.015853069E1,-1.463183388E-2
3.016646526E1,-3.489768133E-4
3.017436931E1,2.003779169E-3
3.018230389E1,-7.682111580E-3
3.019023846E1,-7.598786615E-3
3.019814251E1,-7.667864673E-3
3.020610760E1,-2.879026812E-3
3.021404217E1,-1.020370238E-2
3.022197674E1,-5.414864048E-3
3.022994182E1,-7.767837495E-3
3.023787639E1,-1.005521510E-2
3.024581096E1,-6.031277589E-4
3.025371502E1,-5.621179007E-4
3.026164959E1,1.997656655E-3
3.026958416E1,-4.369542003E-4
3.027748821E1,-7.515313569E-3
3.028542278E1,-1.223076135E-2
3.029332683E1,-1.473854668E-2
3.030126140E1,-1.229928248E-2
3.030922649E1,-1.231132913E-2
3.031716106E1,-3.818641417E-4
3.032509563E1,2.003736328E-3
3.033306072E1,-1.237053983E-2
3.034099529E1,-3.993152641E-4
3.034892986E1,-5.152006168E-3
3.035686443E1,-2.430561930E-2
3.036479900E1,-4.849829711E-4
3.037273357E1,-4.435386509E-4
3.038066814E1,-9.827882051E-3
3.038860271E1,-1.455448568E-2
3.039653728E1,-2.541654743E-3
3.040447185E1,-4.885543138E-3
3.041240642E1,-5.031327251E-3
3.042034099E1,4.421364050E-3
3.042827556E1,-4.499270581E-4
3.043617962E1,-1.231964491E-2
3.044411419E1,-1.252985187E-2
3.045201824E1,-6.410810165E-4
3.045995281E1,-1.253936905E-2
3.046788738E1,-7.712741382E-3
3.047579143E1,-7.611375768E-3
3.048372600E1,-2.863453701E-3
3.049166057E1,-2.853630111E-3
3.049959514E1,-1.243246719E-2
3.050749920E1,1.891730353E-3
3.051543377E1,-1.003748737E-2
3.052336834E1,4.328154027E-3
3.053130291E1,-3.767111339E-4
3.053926800E1,9.053518064E-3
3.054720257E1,-1.240448095E-2
3.055507610E1,-2.910446841E-3
3.056298015E1,1.919724979E-3
3.057091472E1,-1.721398346E-2
3.057884930E1,-2.204149961E-2
3.058678386E1,1.734525431E-3
3.059471844E1,-7.823293097E-3
3.060265301E1,-5.428877193E-3
3.061055706E1,-1.273647882E-2
3.061849163E1,-5.512213800E-3
3.062642620E1,1.580516342E-3
3.063436077E1,-7.976751775E-3
3.064229534E1,-5.665223580E-3
3.065022991E1,1.554413699E-3
3.065816448E1,-3.139547538E-3
3.066609905E1,-5.533101037E-3
3.067400310E1,-5.606423598E-3
3.068193767E1,-8.068483323E-3
3.068984173E1,-1.528756041E-2
3.069777630E1,-5.669683218E-3
3.070571087E1,-1.740298979E-2
3.071364544E1,-1.015830599E-2
3.072158001E1,-7.804584689E-3
3.072951458E1,-1.261293702E-2
3.073744915E1,-7.751125842E-3
3.074538372E1,1.860878896E-3
3.075331829E1,6.691319868E-3
3.076125286E1,-1.248127781E-2
3.076918743E1,-1.002819091E-2
3.077712200E1,-2.439455129E-4
3.078505657E1,-1.456801314E-2
3.079299114E1,-1.220919937E-2
3.080092571E1,-5.067448597E-3
3.080872456E1,-2.672379836E-3
3.081668964E1,-2.168860845E-2
3.082462421E1,-9.820470586E-3
3.083252827E1,-2.554222941E-3
3.084046284E1,-1.211788133E-2
3.084836689E1,-1.207617670E-2
3.085630146E1,6.994866766E-3
3.086423603E1,-9.811360389E-3
3.087214008E1,-1.463078521E-2
3.088007465E1,4.555082880E-3
3.088800922E1,-2.751422115E-3
3.089594379E1,-9.972087108E-3
3.090387836E1,-7.660774048E-3
3.091178242E1,-4.777363501E-4
3.091971699E1,-1.475128997E-2
3.092762104E1,-1.495352853E-2
3.093555561E1,1.847221982E-3
3.094349018E1,-5.279106088E-3
3.095139423E1,-1.976253837E-2
3.095932880E1,-1.508802548E-2
3.096723286E1,4.024789669E-3
3.097516743E1,-1.508736052E-2
3.098310200E1,-1.282254048E-2
3.099106708E1,1.626311801E-3
3.099900166E1,-7.817598060E-3
3.100693623E1,-1.500020269E-2
3.101487080E1,4.153626971E-3
3.102280537E1,4.182831850E-3
3.103073994E1,-2.216778323E-2
3.103867451E1,-7.926428691E-3
3.104660908E1,-7.440396585E-4
3.105454365E1,-2.685433626E-2
3.106247822E1,-5.306086037E-3
3.107041279E1,6.707399618E-3
3.107834736E1,-7.591404952E-3
3.108625141E1,-2.192652598E-2
3.109418598E1,-1.000745501E-2
3.110212055E1,-5.260929000E-3
3.111002461E1,-2.179766633E-2
3.111798969E1,-7.515023928E-3
3.112592426E1,6.921890192E-3
3.113388935E1,-1.452424191E-2
3.114182392E1,-1.213098131E-2
3.114975849E1,-1.175026409E-4
3.115769306E1,-4.923968110E-3
3.116562763E1,-2.876799554E-2
3.117356220E1,4.667721223E-3
3.118149677E1,4.709382541E-3
3.118943134E1,-2.609377354E-2
3.119736591E1,-6.939730607E-3
3.120530048E1,7.302229758E-3
3.121323505E1,-1.661399752E-2
3.122116962E1,-1.421641279E-2
3.122910420E1,-9.552605450E-3
3.123703876E1,6.548687816E-5
3.124494282E1,-1.671865582E-2
3.125287739E1,-2.270448022E-3
3.126081196E1,1.226359513E-2
3.126871601E1,-2.596811764E-2
3.127662006E1,-9.157721885E-3
3.128452412E1,-4.533596803E-3
3.129245869E1,-2.124880813E-2
3.130039326E1,-6.823974196E-3
3.130832783E1,5.230458919E-3
3.131629292E1,-4.333206918E-3
3.132422749E1,-1.857601665E-2
3.133216206E1,-1.622128300E-2
3.134009663E1,7.720732596E-3
3.134803120E1,-1.386402827E-2
3.135596577E1,-1.852167770E-3
3.136390034E1,1.247159485E-2
3.137183491E1,-1.621077396E-2
3.137976948E1,-1.377871167E-2
3.138770405E1,-1.724278089E-3
3.139563862E1,-8.824313059E-3
3.140354267E1,-1.824424788E-2
3.141147724E1,-1.103459951E-2
3.141938129E1,1.278620306E-2
3.142731586E1,-1.104130596E-2
3.143528095E1,-8.646242321E-3
3.144321552E1,-3.932400607E-3
3.145115009E1,-8.678927086E-3
3.145908466E1,-1.537333708E-3
3.146701923E1,-4.014199600E-3
3.147495380E1,-6.408401299E-3
3.148285786E1,-1.359790936E-2
3.149079243E1,-1.621949021E-3
3.149872700E1,7.830524817E-3
3.150666157E1,-6.617892999E-3
3.151462666E1,-6.514926441E-3
3.152256123E1,6.663263775E-4
3.153052631E1,-1.128117926E-2
3.153846088E1,-2.072121203E-2
3.154639545E1,5.554715171E-3
3.155433003E1,-3.980165347E-3
3.156226460E1,-1.354748197E-2
3.157019917E1,-1.357796416E-2
3.157813374E1,-3.959283698E-3
3.158606831E1,-1.595115103E-2
3.159400288E1,-6.477782037E-3
3.160190693E1,5.436431151E-3
3.160984150E1,-4.222946241E-3
3.161777607E1,-1.618960500E-2
3.162564961E1,7.835503668E-3
3.163358418E1,-6.516075693E-3
3.164151875E1,-1.620324142E-2
3.164945332E1,-9.008614346E-3
3.165738789E1,-6.674883422E-3
3.166532246E1,-6.771053653E-3
3.167325703E1,-9.180938825E-3
3.168119160E1,-9.114275686E-3
3.168912617E1,-1.381153613E-2
3.169706074E1,-9.083000943E-3
3.170493427E1,4.510716535E-4
3.171289936E1,-1.150655560E-2
3.172083393E1,-1.632076502E-2
3.172876850E1,5.254094489E-3
3.173673359E1,-6.771306973E-3
3.174466816E1,-1.395391207E-2
3.175260273E1,-2.019315492E-3
3.176053730E1,2.762549091E-3
3.176847187E1,-1.873517595E-2
3.177640644E1,-9.170213714E-3
3.178431049E1,-9.170426056E-3
3.179224506E1,-4.258381668E-3
