Time (s),Linear Acceleration x (m/s^2)
1.074462500E-2,-8.624480347E-3
2.068062511E-2,-1.021568874E-2
3.061762510E-2,-3.887797699E-3
4.055362509E-2,-7.334412698E-3
5.049062509E-2,-4.990242245E-3
6.042662507E-2,-4.572286239E-3
7.036362507E-2,-8.896945179E-3
8.029962506E-2,-1.351523484E-2
9.023662505E-2,1.345499139E-3
1.001726250E-1,-2.393257144E-2
1.101096250E-1,-2.088577694E-2
1.200456250E-1,1.607689660E-3
1.299826250E-1,3.195670091E-3
1.399186250E-1,-1.620524755E-2
1.498556250E-1,4.777922079E-3
1.597916251E-1,-7.332960031E-3
1.697286251E-1,-2.249365389E-2
1.796646251E-1,-4.391430260E-4
1.896012501E-1,-4.332326559E-3
1.995372501E-1,-2.415978145E-2
2.094742501E-1,-1.576445657E-2
2.194102501E-1,-5.739853007E-4
2.293472501E-1,-1.200118857E-2
2.392832501E-1,-1.245341017E-2
2.492202501E-1,-2.462906162E-2
2.591562500E-1,-2.403391556E-2
2.690932500E-1,-1.197615632E-2
2.790292500E-1,-9.632939467E-3
2.889662500E-1,-1.205330417E-3
2.989022500E-1,-8.897121053E-3
3.088392500E-1,-1.254416079E-2
3.187752501E-1,-1.830258099E-2
3.287122501E-1,-7.365767250E-4
3.386482501E-1,-2.676362424E-2
3.485852501E-1,6.307980814E-4
3.585212501E-1,-2.071310364E-2
3.684582501E-1,-3.333079659E-2
3.783942501E-1,-1.162879745E-2
3.883312501E-1,-1.263408457E-2
3.982672500E-1,-2.225149237E-2
4.082042500E-1,-4.940367322E-3
4.181402500E-1,-9.470617563E-3
4.280772500E-1,-8.951501300E-3
4.380132500E-1,-1.998200297E-2
4.479502500E-1,-1.490498210E-2
4.578862501E-1,-4.079232342E-4
4.678232501E-1,-6.687002586E-3
4.777592501E-1,-1.994100622E-2
4.876962501E-1,-5.789024436E-3
4.976322501E-1,-2.413014337E-2
5.075692501E-1,-6.977563523E-3
5.175052501E-1,3.063567557E-3
5.274422501E-1,-7.348278137E-3
5.373782500E-1,-1.507093910E-2
5.473152500E-1,-1.938676783E-2
5.572512500E-1,-5.055202298E-3
5.671882500E-1,-1.607276472E-2
5.771252500E-1,-9.403303777E-3
5.870612500E-1,-2.374523213E-2
5.969982500E-1,-2.994323733E-2
6.069342501E-1,-2.808596749E-2
6.168712501E-1,-9.675718930E-3
6.268072501E-1,-1.238609410E-2
6.367442501E-1,-3.731937425E-3
6.466802501E-1,-1.005732170E-2
6.566172501E-1,-8.083172645E-3
6.665532500E-1,-1.066413021E-2
6.764902500E-1,-1.492981221E-2
6.864262500E-1,-8.625185554E-3
6.963632500E-1,-4.178989038E-3
7.062992500E-1,-4.114368169E-3
7.162362500E-1,-6.425170664E-3
7.261722500E-1,-1.736365634E-2
7.361092501E-1,-1.983376006E-2
7.460452501E-1,-1.821654013E-2
7.559822501E-1,-1.024967911E-2
7.659182501E-1,-1.223090991E-2
7.758552501E-1,-2.337581601E-2
7.857912501E-1,-9.935387839E-3
7.957282501E-1,-8.598981577E-3
8.056642500E-1,-1.500510197E-2
8.156012500E-1,-2.938550203E-3
8.255372500E-1,-2.230587604E-2
8.354742500E-1,-1.928803668E-2
8.454102500E-1,-1.128737031E-2
8.553472500E-1,-1.127428259E-2
8.652832501E-1,-9.121206456E-3
8.752202501E-1,5.804773089E-3
8.851562501E-1,-1.743192144E-2
8.950932501E-1,6.028313743E-3
9.050292501E-1,-1.240679005E-2
9.149662501E-1,-7.700040692E-3
9.249022501E-1,-2.074406419E-2
9.348392501E-1,-5.647287701E-3
9.447752500E-1,-6.719775544E-3
9.547122500E-1,-1.388793203E-2
9.646482500E-1,7.873344398E-4
9.745852500E-1,-1.201002678E-2
9.845212500E-1,-2.475539345E-2
9.944582500E-1,-9.414307277E-3
1.004394250E0,8.463342162E-4
1.014331250E0,-9.070235181E-3
1.024267250E0,-1.043480972E-2
1.034204250E0,-1.307626998E-2
1.044141250E0,-1.501221113E-2
1.054077250E0,-1.829041033E-3
1.064014250E0,-1.553026302E-2
1.073950250E0,1.545106180E-3
1.083887250E0,-1.811609021E-4
1.093823250E0,-6.819735523E-3
1.103760250E0,7.392744385E-3
1.113696250E0,-1.109780860E-2
1.123633250E0,-1.877109257E-2
1.133569250E0,-1.978885070E-2
1.143506250E0,-1.066602256E-2
1.153442250E0,-1.065584818E-2
1.163379250E0,-2.002151964E-2
1.173315250E0,-2.257688307E-2
1.183252500E0,-6.089783739E-4
1.193188500E0,-1.801946954E-2
1.203125500E0,-1.470960858E-2
1.213061500E0,3.416949516E-3
1.222998500E0,2.563153248E-3
1.232934500E0,-1.487379771E-3
1.242871500E0,1.667501422E-3
1.252807500E0,-1.045231368E-2
1.262744500E0,-1.522740808E-2
1.272680500E0,-1.511751126E-2
1.282617500E0,-9.519815259E-4
1.292553500E0,-8.518205490E-3
1.302490500E0,-1.813285185E-2
1.312426500E0,-5.931810702E-3
1.322363500E0,-1.963778241E-3
1.332299500E0,-1.586691874E-2
1.342236500E0,-9.555303975E-3
1.352172500E0,-7.807414758E-3
1.362109500E0,-8.746687726E-3
1.372045500E0,-5.392387927E-3
1.381982500E0,-1.668804826E-2
1.391919500E0,-1.968715255E-3
1.401855500E0,-5.508422039E-3
1.411792500E0,-1.597528295E-2
1.421728500E0,-1.526015363E-2
1.431665500E0,-1.391528832E-2
1.441601500E0,-2.151760285E-2
1.451538500E0,-1.165389366E-2
1.461474500E0,-4.028706460E-3
1.471411500E0,-1.581378445E-2
1.481347500E0,-3.108318171E-3
1.491284500E0,-5.747767305E-3
1.501220500E0,-1.710325539E-2
1.511157500E0,1.881930355E-2
1.521093500E0,-3.455505737E-3
1.531030500E0,-1.011874601E-2
1.540966500E0,-5.773770284E-3
1.550903500E0,-6.904884459E-3
1.560839500E0,-6.642045263E-3
1.570776500E0,-3.819490343E-3
1.580712500E0,1.148306474E-2
1.590649500E0,-1.769669296E-2
1.600585500E0,-2.677523187E-2
1.610522500E0,-8.997544697E-3
1.620458500E0,9.279798476E-3
1.630395500E0,-1.687314576E-3
1.640331500E0,-6.608483159E-3
1.650268500E0,2.155075839E-4
1.660204500E0,-8.186273219E-4
1.670141500E0,-9.381222543E-3
1.680077500E0,-1.299676612E-2
1.690014500E0,-5.200017958E-3
1.699950500E0,5.469532345E-3
1.709887500E0,5.670051870E-4
1.719823500E0,-4.500131370E-3
1.729760500E0,-6.351005815E-3
1.739697500E0,-8.490456340E-3
1.749633500E0,-2.459279974E-2
1.759570500E0,-1.198695997E-2
1.769506500E0,-1.994399835E-2
1.779443500E0,-1.313576882E-2
1.789379500E0,-1.134984301E-2
1.799316500E0,-1.006889051E-2
1.809252500E0,-1.050800270E-2
1.819189500E0,-1.857490821E-2
1.829125500E0,-2.622625370E-2
1.839062500E0,-1.788457017E-2
1.848998500E0,-3.321911705E-3
1.858935500E0,-8.597556318E-3
1.868871500E0,-1.513005879E-3
1.878808500E0,-1.832322783E-2
1.888744500E0,-1.988364184E-2
1.898681500E0,-6.661370768E-3
1.908617500E0,-1.672861789E-2
1.918554500E0,4.656785358E-3
1.928490500E0,-1.085660524E-2
1.938427500E0,-2.393346223E-2
1.948363500E0,8.752392187E-3
1.958300500E0,-7.720734354E-4
1.968236500E0,-4.206305129E-2
1.978173500E0,-8.238578390E-3
1.988109500E0,-2.329816681E-2
1.998046500E0,-8.443644354E-3
2.007982500E0,-1.181367568E-2
2.017919500E0,-1.284284045E-2
2.027856500E0,-1.353759588E-2
2.037792500E0,-1.599360918E-2
2.047729500E0,-8.533392262E-3
2.057665500E0,-2.620362315E-3
2.067602500E0,1.750418823E-4
2.077538500E0,-2.281097955E-2
2.087475500E0,-5.243422114E-3
2.097411500E0,-1.401691453E-2
2.107348500E0,-1.391309447E-2
2.117284500E0,-1.243664169E-2
2.127221500E0,-2.340672403E-2
2.137157500E0,-1.198773198E-2
2.147094500E0,-8.080725266E-3
2.157030500E0,-8.032654758E-3
2.166967500E0,5.737926395E-3
2.176903500E0,-9.133508450E-3
2.186840792E0,-1.919045442E-2
2.196776792E0,-1.404107540E-2
2.206713792E0,2.717357572E-3
2.216649792E0,-1.750100196E-3
2.226586792E0,-7.148755607E-3
2.236522792E0,5.346547812E-5
2.246459792E0,-2.123438748E-2
2.256395792E0,-8.555893764E-3
2.266332792E0,-5.197924610E-3
2.276268792E0,-1.934004949E-2
2.286205792E0,-1.901861823E-2
2.296141792E0,-1.470760660E-2
2.306078792E0,-2.289546724E-2
2.316015792E0,-1.144895902E-2
2.325951792E0,7.442239010E-3
2.335888792E0,-5.337500616E-3
2.345824792E0,-1.923579090E-2
2.355761792E0,-1.490362879E-2
2.365697792E0,-1.103380557E-2
2.375634792E0,9.861523344E-4
2.385570792E0,-1.324112034E-2
2.395507792E0,-3.092666819E-2
2.405443792E0,-5.856484403E-3
2.415380792E0,-7.237021155E-3
2.425316792E0,6.115477227E-3
2.435253792E0,-1.522007279E-2
2.445189792E0,3.228160967E-3
2.455126792E0,-5.065657622E-3
2.465062792E0,-3.192560332E-3
2.474999792E0,-1.579973058E-2
2.484935792E0,-1.053626691E-2
2.494872792E0,-1.553452623E-2
2.504808792E0,-1.722621594E-2
2.514745792E0,-2.383300660E-2
2.524681792E0,-1.094782409E-2
2.534618792E0,-2.609814257E-2
2.544554792E0,-1.127110317E-2
2.554491792E0,-1.661176836E-2
2.564428792E0,-2.606860043E-2
2.574364792E0,-3.252347883E-2
2.584301792E0,-1.746674093E-2
2.594237792E0,-8.055171106E-3
2.604174792E0,-1.068346713E-2
2.614110792E0,-1.547222826E-2
2.624047792E0,-1.718958633E-2
2.633983792E0,-1.160183288E-2
2.643920792E0,-2.517113049E-2
2.653856792E0,-1.670567784E-2
2.663793792E0,-1.434536359E-2
2.673729792E0,-1.330340118E-2
2.683666792E0,-6.606087171E-3
2.693602792E0,-1.364378679E-2
2.703539792E0,-2.172790619E-2
2.713475792E0,-1.347667063E-2
2.723412792E0,-1.070086146E-4
2.733348792E0,-1.120783104E-2
2.743285792E0,-1.052950606E-2
2.753221792E0,-3.723228271E-3
2.763158792E0,-2.357188503E-2
2.773094792E0,-1.492372289E-2
2.783031792E0,2.088812725E-3
2.792967792E0,-2.761990557E-3
2.802904792E0,-1.476812528E-2
2.812840792E0,-7.312939027E-3
2.822777792E0,-2.598744290E-2
2.832714792E0,-1.402512690E-2
2.842650792E0,-1.250108326E-2
2.852587792E0,-1.136996794E-2
2.862523792E0,-8.108847861E-3
2.872460792E0,-9.735473591E-3
2.882396792E0,-1.322051233E-2
2.892333792E0,-2.611180130E-2
2.902269792E0,-1.570228308E-2
2.912206792E0,-6.613028456E-3
2.922142792E0,-2.012925915E-2
2.932079792E0,-2.002256117E-2
2.942015792E0,-5.082768722E-3
2.951952792E0,-2.130373180E-2
2.961888792E0,-2.209062999E-2
2.971825792E0,-5.989247033E-3
2.981761792E0,-5.066112152E-3
2.991698792E0,-1.351896130E-2
3.001634792E0,-3.389842190E-3
3.011571792E0,-2.690689929E-4
3.021507792E0,-1.406887709E-2
3.031444792E0,4.363517800E-3
3.041380792E0,1.105900570E-2
3.051317792E0,-4.558681184E-4
3.061253792E0,3.979292919E-4
3.071190792E0,-1.735759442E-2
3.081127792E0,-1.496173550E-2
3.091063792E0,-2.426135170E-2
3.101000792E0,-1.578882644E-2
3.110936792E0,-1.313564206E-2
3.120873792E0,-1.389778779E-2
3.130809792E0,-2.017309728E-2
3.140746792E0,-1.937279619E-2
3.150682792E0,-1.917465095E-2
3.160619792E0,-2.532262819E-2
3.170555792E0,-1.888044121E-2
3.180492792E0,-2.499361724E-2
3.190428125E0,-1.865990868E-2
3.200365125E0,-1.122949543E-2
3.210301125E0,-1.536564220E-2
3.220238125E0,-6.733353190E-3
3.230174125E0,-1.379908861E-2
3.240111125E0,-1.640733851E-2
3.250047125E0,-2.078806905E-2
3.259984125E0,-8.270377193E-3
3.269920125E0,-3.416897211E-2
3.279857125E0,-1.471491219E-2
3.289793125E0,-1.505122188E-2
3.299730125E0,4.160714205E-3
3.309667125E0,-2.347451518E-2
3.319603125E0,-1.037113103E-2
3.329540125E0,-1.571078324E-3
3.339476125E0,-5.017374696E-3
3.349413125E0,3.159369389E-4
3.359349125E0,-6.968426106E-3
3.369286125E0,-2.350164078E-2
3.379222125E0,-1.299486577E-2
3.389159125E0,6.775637011E-3
3.399095125E0,-1.949729620E-2
3.409032125E0,-1.478497029E-2
3.418968125E0,-1.153436834E-2
3.428905125E0,-1.522918623E-2
3.438841125E0,-2.994405959E-3
3.448778125E0,-4.964077097E-3
3.458714125E0,2.123278178E-3
3.468651125E0,6.129583635E-4
3.478587125E0,-8.936982618E-3
3.488524125E0,-2.171395738E-2
3.498460125E0,-1.742270180E-2
3.508397125E0,-2.728896687E-3
3.518333125E0,-1.414923405E-2
3.528270125E0,-1.407035374E-2
3.538207125E0,-1.559765675E-2
3.548143125E0,-1.925928940E-2
3.558080125E0,-1.418239530E-2
3.568016125E0,-1.860773713E-2
3.577953125E0,-9.173236397E-3
3.587889125E0,-5.299141968E-3
3.597826125E0,-5.981622812E-3
3.607762125E0,-9.114429625E-3
3.617699125E0,-6.533548578E-3
3.627635125E0,-1.627284684E-2
3.637572125E0,6.354349691E-3
3.647508125E0,-1.811454847E-3
3.657445125E0,-1.558062216E-2
3.667381125E0,-1.379880425E-2
3.677318125E0,-1.819352699E-2
3.687254125E0,-1.265522477E-3
3.697191125E0,-1.493961315E-3
3.707127125E0,-1.730383202E-2
3.717064125E0,-3.175179940E-2
3.727000125E0,-8.827836115E-3
3.736937125E0,-1.990532450E-2
3.746874125E0,-5.108956711E-3
3.756810125E0,7.616455201E-4
3.766747125E0,-1.202174176E-2
3.776683125E0,-1.593556528E-2
3.786620125E0,-7.380581719E-3
3.796556125E0,-1.439154175E-2
3.806493125E0,-1.339639704E-2
3.816429125E0,-1.038930650E-2
3.826366125E0,-2.541939504E-2
3.836302125E0,-2.077809681E-2
3.846239125E0,3.317131150E-3
3.856175125E0,-2.015632537E-2
3.866112125E0,-9.277983784E-3
3.876048125E0,-7.269783835E-3
3.885985125E0,-5.871448478E-3
3.895921125E0,-4.676419211E-3
3.905858125E0,-2.485335716E-2
3.915794125E0,-2.013433435E-2
3.925731125E0,-5.753121162E-3
3.935667125E0,-2.478313118E-2
3.945604125E0,-1.233009103E-2
3.955540125E0,-1.226517665E-2
3.965477125E0,-8.853306907E-3
3.975414125E0,-4.107971635E-3
3.985350125E0,-8.684788324E-3
3.995287125E0,-1.308947874E-2
4.005223125E0,-3.422188485E-2
4.015160125E0,-1.178021635E-2
4.025096125E0,-1.817616921E-2
4.035033125E0,-3.045408069E-2
4.044969125E0,-1.550960476E-2
4.054906125E0,-1.416864863E-2
4.064842125E0,-2.464491305E-2
4.074779125E0,-3.286626271E-2
4.084715125E0,-8.198269147E-3
4.094652125E0,-1.185192240E-2
4.104588125E0,-1.272149473E-2
4.114525125E0,-1.332624301E-2
4.124461125E0,-2.022544585E-2
4.134398125E0,-8.177810744E-4
4.144334125E0,-2.371730939E-2
4.154271125E0,-2.451755796E-2
4.164207125E0,-1.581452563E-2
4.174144125E0,-2.350196512E-2
4.184081125E0,-5.642356396E-3
4.194017375E0,-2.153475164E-2
4.203954375E0,-2.276701808E-2
4.213890375E0,-1.878288065E-2
4.223827375E0,-1.277503559E-2
4.233763375E0,-6.604058918E-3
4.243700375E0,-2.771260450E-4
4.253636375E0,-1.602106825E-2
4.263573375E0,-2.864967105E-2
4.273509375E0,-9.567092053E-3
4.283446375E0,-1.574329467E-2
4.293382375E0,-2.914597632E-2
4.303319375E0,-1.755072156E-2
4.313255375E0,-1.583958529E-2
4.323192375E0,-1.799583286E-2
4.333128375E0,-2.156305810E-2
4.343065375E0,-7.631943470E-3
4.353001375E0,-2.251339510E-2
4.362938375E0,-1.158405597E-2
4.372875375E0,-3.871929132E-3
4.382811375E0,1.426544746E-3
4.392748375E0,-1.225846720E-2
4.402684375E0,-1.700470468E-2
4.412621375E0,-8.293939645E-3
4.422557375E0,5.469936625E-3
4.432494375E0,-6.168038214E-3
4.442430375E0,-7.105358304E-3
4.452367375E0,-2.286670397E-2
4.462303375E0,-2.072496252E-2
4.472240375E0,-2.047192883E-2
4.482176375E0,-1.398647817E-2
4.492113375E0,5.510357787E-3
4.502049375E0,1.271193819E-3
4.511986375E0,-1.046390990E-2
4.521922375E0,-8.622665084E-3
4.531859375E0,-1.011526624E-2
4.541795375E0,-2.196901704E-2
4.551732375E0,-7.722213288E-3
4.561668375E0,-1.023576799E-2
4.571605375E0,-1.452680544E-2
4.581541375E0,-9.809643009E-3
4.591478375E0,-1.230947045E-2
4.601415375E0,-4.010676022E-4
4.611351375E0,-1.617611768E-2
4.621288375E0,-1.949178474E-2
4.631224375E0,-4.603527730E-3
4.641161375E0,-6.114901642E-3
4.651097375E0,-2.034653347E-2
4.661034375E0,-6.571668541E-3
4.670970375E0,-7.277248171E-3
4.680907375E0,-1.043346555E-3
4.690843375E0,1.106982648E-2
4.700780375E0,-2.443220231E-2
4.710716375E0,-7.414270589E-3
4.720653375E0,-1.320554255E-2
4.730589375E0,-1.258601406E-2
4.740526375E0,-2.026092201E-2
4.750462375E0,-1.691028014E-2
4.760399375E0,5.598499995E-3
4.770335375E0,-1.985549526E-2
4.780272375E0,-1.382451372E-2
4.790209375E0,-1.391128321E-2
4.800145375E0,-2.624018652E-2
4.810082375E0,-5.787905243E-3
4.820018375E0,-8.684648996E-3
4.829955375E0,-1.751120603E-2
4.839891375E0,4.136500794E-3
4.849828375E0,-2.342910105E-2
4.859764375E0,-9.869950415E-3
4.869701375E0,-3.640136139E-3
4.879637375E0,-2.777925362E-3
4.889574375E0,-1.148256795E-2
4.899510375E0,-2.765798785E-2
4.909447375E0,-1.726299972E-2
4.919383375E0,-4.142940725E-3
4.929320375E0,-2.486488713E-2
4.939256375E0,2.234550007E-3
4.949193375E0,5.578003905E-4
4.959129375E0,-2.422870550E-2
4.969066375E0,-1.493899531E-2
4.979003375E0,-1.308247693E-2
4.988939375E0,-2.218587565E-2
4.998876375E0,-6.705929521E-3
5.008812375E0,-1.425654644E-2
5.018749375E0,5.220045814E-3
5.028685375E0,-8.279136596E-3
5.038622375E0,-2.416654686E-2
5.048558375E0,-1.529105365E-2
5.058495375E0,-1.535199831E-2
5.068431375E0,-6.178106389E-3
5.078368375E0,-1.927844131E-2
5.088304375E0,-1.554075603E-2
5.098241375E0,-1.951600500E-2
5.108177375E0,-1.542000874E-2
5.118114375E0,-3.118810040E-3
5.128050375E0,-6.710216717E-3
5.137987375E0,-1.757944258E-2
5.147923375E0,-4.791789801E-3
5.157860375E0,-1.818431192E-2
5.167796375E0,-1.574546568E-2
5.177733375E0,-8.551918343E-3
5.187670042E0,-2.425286181E-2
5.197606042E0,-1.314194152E-2
5.207543042E0,-2.454205231E-2
5.217479042E0,-1.153920600E-3
5.227416042E0,-5.911427673E-3
5.237352042E0,-4.618682525E-3
5.247289042E0,-8.312739814E-3
5.257225042E0,-1.005279924E-2
5.267162042E0,-3.136360823E-3
5.277098042E0,-1.402497386E-2
5.287035042E0,-1.098911777E-2
5.296971042E0,-1.413343172E-2
5.306908042E0,9.972300672E-4
5.316844042E0,-3.293722873E-3
5.326781042E0,-2.554873271E-2
5.336717042E0,-1.232763451E-2
5.346654042E0,-7.956430820E-3
5.356591042E0,-4.190839928E-3
5.366527042E0,-9.124775314E-3
5.376464042E0,-1.730123389E-2
5.386400042E0,-1.544847052E-2
5.396337042E0,3.183136265E-3
5.406273042E0,7.552421337E-4
5.416210042E0,-1.323662644E-2
5.426146042E0,-9.692930529E-3
5.436083042E0,1.075882769E-2
5.446019042E0,-1.017641646E-3
5.455956042E0,-1.456617935E-2
5.465892042E0,6.801032427E-3
5.475829042E0,-1.208739389E-3
5.485765042E0,-1.862532331E-4
5.495702042E0,-1.198389589E-2
5.505638042E0,-4.224687541E-3
5.515575042E0,-1.647745942E-2
5.525511042E0,-1.152125893E-2
5.535448042E0,-3.005992811E-2
5.545384042E0,-3.237103324E-2
5.555321042E0,-1.060109106E-2
5.565258042E0,-1.554312689E-2
5.575194042E0,-2.148386259E-2
5.585131042E0,-1.110308708E-2
5.595067042E0,-6.194185090E-3
5.605004042E0,-2.290246106E-2
5.614940042E0,-1.454093811E-2
5.624877042E0,1.066610364E-2
5.634813042E0,-2.009400227E-3
5.644750042E0,1.319574961E-4
5.654686042E0,-8.891191611E-3
5.664623042E0,-3.341989811E-3
5.674559042E0,-1.524003213E-2
5.684496042E0,-9.235814167E-3
5.694432042E0,-5.244399696E-3
5.704369042E0,2.302987555E-3
5.714305042E0,7.994312098E-3
5.724242042E0,-1.234124299E-2
5.734178042E0,-1.733651133E-2
5.744115042E0,3.136396226E-3
5.754052042E0,1.489549637E-3
5.763988042E0,-5.118992908E-3
5.773925042E0,-1.505731578E-2
5.783861042E0,-1.207588333E-2
5.793798042E0,-1.637759309E-2
5.803734042E0,-1.918909083E-2
5.813671042E0,-8.958665282E-3
5.823607042E0,-1.605985744E-2
5.833544042E0,2.428017471E-3
5.843480042E0,-1.452156007E-2
5.853417042E0,-4.645390139E-3
5.863353042E0,-1.092771858E-2
5.873290042E0,-1.489127312E-2
5.883226042E0,-1.704336939E-2
5.893163042E0,-2.007706590E-2
5.903099042E0,-2.461303431E-2
5.913036042E0,-1.757604960E-2
5.922972042E0,1.187926956E-3
5.932909042E0,-9.478884749E-7
5.942846042E0,-3.384746890E-2
5.952782042E0,-1.686560033E-2
5.962719042E0,-1.029885625E-2
5.972655042E0,-1.959451986E-2
5.982592042E0,-2.864214733E-2
5.992528042E0,-7.897745103E-3
6.002465042E0,-8.015673850E-3
6.012401042E0,-7.189579908E-3
6.022338042E0,-1.408303946E-2
6.032274042E0,-1.074552528E-2
6.042211042E0,-1.446941479E-2
6.052147042E0,7.426706201E-4
6.062084042E0,-4.708612016E-3
6.072020042E0,-1.226346246E-2
6.081957042E0,-4.142897328E-3
6.091893042E0,-1.157772111E-2
6.101830042E0,-1.194854993E-2
6.111766042E0,-1.941368330E-2
6.121703042E0,-2.620073380E-2
6.131640042E0,-1.239492317E-2
6.141576042E0,-7.065060481E-3
6.151513042E0,-1.079722403E-2
6.161449042E0,-4.484158878E-3
6.171386042E0,-8.078366965E-3
6.181322042E0,-2.336175528E-2
6.191259500E0,-9.101722209E-3
6.201195500E0,-4.737519189E-3
6.211132500E0,-1.686572482E-2
6.221068500E0,-1.991121511E-2
6.231005500E0,-1.737818759E-2
6.240941500E0,-7.505085157E-3
6.250878500E0,-1.172814987E-2
6.260814500E0,-7.484117408E-3
6.270751500E0,-1.517319800E-2
6.280687500E0,-3.673206255E-2
6.290624500E0,-4.579624952E-3
6.300561500E0,-1.118152543E-2
6.310497500E0,-1.225488464E-3
6.320434500E0,-3.081154200E-2
6.330370500E0,-1.191264894E-2
6.340307500E0,-2.174323685E-2
6.350243500E0,-6.881817650E-3
6.360180500E0,-7.172458529E-3
6.370116500E0,-1.405174315E-2
6.380053500E0,-2.349955771E-2
6.389989500E0,-1.232762423E-2
6.399926500E0,-8.493193797E-3
6.409862500E0,-8.975356113E-3
6.419799500E0,-2.057253292E-2
6.429735500E0,-5.062217815E-3
6.439672500E0,-2.789631214E-3
6.449608500E0,-1.436137720E-2
6.459545500E0,-8.407858709E-3
6.469481500E0,-3.289083929E-3
6.479418500E0,5.039511889E-3
6.489355500E0,-1.538830244E-2
6.499291500E0,-1.872718935E-2
6.509228500E0,-1.396668557E-2
6.519164500E0,-2.315013404E-2
6.529101500E0,-3.458437567E-2
6.539037500E0,-2.802806407E-2
6.548974500E0,6.027751862E-3
6.558910500E0,-1.154191034E-2
6.568847500E0,-1.647049187E-2
6.578783500E0,-1.018825479E-2
6.588720500E0,-2.886506786E-2
6.598656500E0,-5.265124192E-3
6.608593500E0,-1.621118727E-2
6.618529500E0,-1.181692476E-2
6.628466500E0,-1.089048712E-2
6.638402500E0,-1.194319150E-2
6.648339500E0,-1.228554484E-2
6.658276500E0,-1.707415864E-2
6.668212500E0,-1.484601202E-3
6.678149500E0,-2.589315198E-2
6.688085500E0,-1.447090743E-2
6.698022500E0,-1.138237157E-2
6.707958500E0,-9.026883559E-3
6.717895500E0,-8.689828122E-3
6.727831500E0,-1.271223626E-2
6.737768500E0,-6.293600318E-3
6.747704500E0,-1.361640195E-2
6.757641500E0,-1.309471269E-2
6.767577500E0,-1.319417702E-2
6.777514500E0,5.196656951E-3
6.787450500E0,-5.090284450E-3
6.797387500E0,-7.228863604E-3
6.807323500E0,-1.806795461E-2
6.817260500E0,-2.101807476E-2
6.827196500E0,-7.872172671E-3
6.837133500E0,-4.901013962E-3
6.847070500E0,-1.419602890E-2
6.857006500E0,-1.270095639E-2
6.866943500E0,-1.478993242E-2
6.876879500E0,-9.060031105E-3
6.886816500E0,-8.850333049E-3
6.896752500E0,-1.671869589E-2
6.906689500E0,-2.001040079E-2
6.916625500E0,-3.169482102E-3
6.926562500E0,-2.093644672E-2
6.936498500E0,-2.389079811E-2
6.946435500E0,-6.047385716E-3
6.956371500E0,-1.588915301E-2
6.966308500E0,-9.550365818E-3
6.976244500E0,-2.244849329E-2
6.986181500E0,-1.870631182E-2
6.996117500E0,-1.586557000E-2
7.006054500E0,-2.389562435E-2
7.015991500E0,-1.268102332E-2
7.025927500E0,1.402276517E-3
7.035864500E0,-1.264780725E-2
7.045800500E0,-2.172400500E-2
7.055737500E0,-1.763388450E-2
7.065673500E0,-3.986624780E-3
7.075610500E0,-5.871890446E-3
7.085546500E0,-1.506945217E-2
7.095483500E0,-1.271183883E-2
7.105419500E0,-5.430658639E-3
7.115356500E0,6.620507638E-3
7.125292500E0,-7.796259366E-3
7.135229500E0,-6.672402819E-3
7.145165500E0,-3.340342997E-3
7.155102500E0,-2.040952351E-4
7.165038500E0,1.616064197E-3
7.174975500E0,-5.397435719E-3
7.184911500E0,-3.297557824E-3
7.194848625E0,-9.366180809E-3
7.204785625E0,-2.532797063E-2
7.214721625E0,-1.520410830E-3
7.224658625E0,-8.712151466E-3
7.234594625E0,-1.617442404E-2
7.244531625E0,-1.680833645E-2
7.254467625E0,-4.074991968E-3
7.264404625E0,-2.299799908E-2
7.274340625E0,-1.808945341E-2
7.284277625E0,-1.817594880E-2
7.294213625E0,-1.852525370E-2
7.304150625E0,5.845514021E-4
7.314086625E0,-7.229899429E-4
7.324023625E0,-1.074319324E-2
7.333959625E0,-1.048434203E-2
7.343896625E0,-8.908573373E-3
7.353832625E0,-1.030879423E-2
7.363769625E0,-3.282486397E-3
7.373706625E0,-1.776111854E-2
7.383642625E0,-1.085755313E-2
7.393579625E0,-7.719422156E-3
7.403515625E0,-8.656922687E-3
7.413452625E0,-2.022092568E-2
7.423388625E0,-1.610982716E-2
7.433325625E0,8.711800862E-3
7.443261625E0,-5.686681032E-3
7.453198625E0,-2.051124451E-2
7.463134625E0,-3.461633893E-2
7.473071625E0,-1.461865355E-2
7.483007625E0,-1.137826368E-2
7.492944625E0,-1.101799639E-2
7.502880625E0,-7.953510638E-3
7.512817625E0,-2.486278579E-2
7.522753625E0,-2.178084633E-2
7.532690625E0,-2.449995921E-3
7.542627625E0,-1.174373293E-2
7.552563625E0,-1.200103326E-2
7.562500625E0,-2.833455638E-4
7.572436625E0,-5.480779099E-3
7.582373625E0,-1.327571485E-3
7.592309625E0,-7.710173962E-3
7.602246625E0,-4.527169032E-3
7.612182625E0,-1.461524686E-2
7.622119625E0,-1.684947938E-2
7.632055625E0,-9.863762873E-3
7.641992625E0,-1.171439292E-2
7.651928625E0,-3.015051655E-3
7.661865625E0,-6.356316274E-3
7.671801625E0,-2.072014542E-3
7.681738625E0,-4.359654298E-3
7.691674625E0,-1.745029221E-2
7.701611625E0,-1.676248948E-2
7.711547625E0,-2.936669501E-2
7.721484625E0,-1.242379951E-2
7.731421625E0,-3.396183450E-2
7.741357625E0,-3.084015681E-2
7.751294625E0,-1.443599772E-2
7.761230625E0,-3.441720012E-2
7.771167625E0,-3.199860443E-2
7.781103625E0,-1.105109483E-2
7.791040625E0,3.229743827E-3
7.800976625E0,-1.572611276E-2
7.810913625E0,-2.199281703E-2
7.820849625E0,-9.308503509E-3
7.830786625E0,-2.369387713E-2
7.840722625E0,-1.586053591E-2
7.850659625E0,-1.242514825E-2
7.860595625E0,-9.496643383E-3
7.870532625E0,-3.533424225E-2
7.880468625E0,-2.243548552E-2
7.890405625E0,-8.969685913E-3
7.900342625E0,-3.251029062E-2
7.910278625E0,-2.733267709E-2
7.920215625E0,-5.018569264E-3
7.930151625E0,-1.569119963E-2
7.940088625E0,-2.447859631E-2
7.950024625E0,-1.309389157E-2
7.959961625E0,-8.001863229E-3
7.969897625E0,-3.578302976E-3
7.979834625E0,-2.289903496E-2
7.989770625E0,-1.752034117E-2
7.999707625E0,-1.568032404E-2
8.009643625E0,-1.948277637E-2
8.019580625E0,-3.101986733E-2
8.029516625E0,-2.790439089E-2
8.039453625E0,-9.857872260E-3
8.049389625E0,-2.174909321E-2
8.059326625E0,-1.105989535E-2
8.069263625E0,-2.221847387E-2
8.079199625E0,-3.455080900E-2
8.089136625E0,-2.723334066E-2
8.099072625E0,-3.160531980E-2
8.109009625E0,-8.326524168E-3
8.118945625E0,-3.097803461E-3
8.128882625E0,-2.282782684E-3
8.138818625E0,1.059677302E-2
8.148755625E0,-3.043600229E-3
8.158691625E0,-9.040458921E-3
8.168628625E0,-2.454999630E-2
8.178564625E0,-2.418544068E-2
8.188501625E0,-2.507419690E-2
8.198437292E0,-7.172359172E-3
8.208374292E0,-1.543832126E-2
8.218310292E0,-1.229348312E-2
8.228247292E0,-3.037238184E-2
8.238183292E0,-2.121013524E-2
8.248120292E0,-1.873282643E-2
8.258057292E0,-2.831494994E-2
8.267993292E0,-1.691434122E-2
8.277930292E0,-6.282117163E-3
8.287866292E0,-6.729883690E-3
8.297803292E0,-4.430443294E-3
8.307739292E0,-1.168476284E-2
8.317676292E0,-1.252624684E-2
8.327612292E0,-8.033140122E-3
8.337549292E0,-2.314142260E-2
8.347485292E0,-3.689336347E-2
8.357422292E0,-1.343019098E-2
8.367358292E0,-1.090578010E-2
8.377295292E0,4.035126977E-3
8.387231292E0,-3.174700057E-2
8.397168292E0,-3.073825309E-3
8.407104292E0,-8.006675761E-3
8.417041292E0,-2.939335466E-2
8.426977292E0,-2.409300442E-2
8.436914292E0,-3.462972357E-3
8.446851292E0,-1.646757740E-2
8.456787292E0,1.336134458E-4
8.466724292E0,2.634787350E-4
8.476660292E0,3.273723568E-3
8.486597292E0,-7.261845554E-3
8.496533292E0,-1.255255588E-3
8.506470292E0,-5.328793747E-3
8.516406292E0,-2.144168270E-2
8.526343292E0,3.576805769E-3
8.536279292E0,-2.641939911E-3
8.546216292E0,-2.081028619E-2
8.556152292E0,-2.173171144E-2
8.566089292E0,-1.301695842E-2
8.576025292E0,-1.169091841E-2
8.585962292E0,-1.522895211E-2
8.595898292E0,-9.140006625E-3
8.605835292E0,-2.800900808E-3
8.615772292E0,-2.798464164E-2
8.625708292E0,-8.484544029E-3
8.635645292E0,-1.251428289E-2
8.645581292E0,-2.056243734E-2
8.655518292E0,-7.106751585E-3
8.665454292E0,-9.925007889E-3
8.675391292E0,-1.411792404E-2
8.685327292E0,-9.963448764E-3
8.695264292E0,-1.363962522E-2
8.705200292E0,-1.183807295E-2
8.715137292E0,-1.092571659E-2
8.725073292E0,-3.025845021E-3
8.735010292E0,-3.579932658E-3
8.744946292E0,-2.190353279E-2
8.754883292E0,-1.315942264E-2
8.764819292E0,-6.133753202E-3
8.774756292E0,-3.500686898E-3
8.784692292E0,-2.392773835E-2
8.794629292E0,-2.652620901E-2
8.804566292E0,-2.360379347E-2
8.814502292E0,-3.397056421E-2
8.824439292E0,-1.562408456E-2
8.834375292E0,-4.620643398E-3
8.844312292E0,4.409094105E-3
8.854248292E0,-1.181069953E-2
8.864185292E0,-1.082238190E-2
8.874121292E0,-2.271096475E-2
8.884058292E0,-2.160127742E-2
8.893994292E0,4.475157363E-3
8.903931292E0,-1.882540430E-2
8.913867292E0,-6.997654190E-3
8.923804292E0,-1.578154254E-2
8.933740292E0,-5.931637113E-3
8.943677292E0,-1.360390239E-2
8.953613292E0,-6.653697439E-4
8.963550292E0,-8.840872437E-3
8.973486292E0,-2.116481018E-2
8.983423292E0,-6.948971552E-3
8.993360292E0,-1.842211429E-2
9.003296292E0,-8.820031453E-3
9.013233292E0,-1.670312882E-2
9.023169292E0,-1.092279413E-2
9.033106292E0,5.825300014E-4
9.043042292E0,-2.276064553E-2
9.052979292E0,-5.691996060E-3
9.062915292E0,-1.586201599E-2
9.072852292E0,-4.179979182E-3
9.082788292E0,1.299267306E-3
9.092725292E0,-5.875658017E-3
9.102661292E0,-1.248750904E-2
9.112598292E0,-4.132693252E-3
9.122534292E0,-1.473645553E-2
9.132471292E0,-1.237630459E-2
9.142407292E0,-9.673155063E-3
9.152344292E0,-1.620782283E-2
9.162280292E0,-2.127669300E-2
9.172217292E0,-9.939503730E-3
9.182154292E0,-2.462456200E-2
9.192090125E0,-1.995876257E-2
9.202027125E0,-6.589606474E-3
9.211963125E0,-7.234510963E-3
9.221900125E0,-6.745218927E-3
9.231836125E0,-3.967153095E-3
9.241773125E0,-2.668775661E-2
9.251709125E0,-5.025960510E-3
9.261646125E0,-1.435757080E-2
9.271582125E0,-1.417945456E-2
9.281519125E0,-4.727171216E-3
9.291455125E0,-2.726009396E-2
9.301392125E0,-1.537575491E-2
9.311328125E0,-2.398655768E-2
9.321265125E0,-1.302446844E-2
9.331201125E0,-1.154852500E-3
9.341138125E0,-9.241694502E-3
9.351074125E0,3.626582476E-3
9.361011125E0,1.058781148E-3
9.370948125E0,-1.413644212E-2
9.380884125E0,-9.782390645E-3
9.390821125E0,6.089356618E-3
9.400757125E0,-3.032483667E-3
9.410694125E0,1.163806392E-2
9.420630125E0,-1.435998049E-2
9.430567125E0,-5.457986378E-3
9.440503125E0,-4.229021561E-3
9.450440125E0,-2.198272145E-2
9.460376125E0,8.685952057E-3
9.470313125E0,-9.184434044E-4
9.480249125E0,-1.511985586E-2
9.490186125E0,-6.257955143E-3
9.500122125E0,-1.048880168E-2
9.510059125E0,1.295950839E-3
9.519995125E0,-1.804233650E-2
9.529932125E0,-1.499443879E-2
9.539868125E0,-4.474011903E-3
9.549805125E0,-4.910906263E-3
9.559742125E0,1.581543926E-3
9.569678125E0,-1.705656218E-2
9.579615125E0,-2.292859081E-2
9.589551125E0,-1.305318832E-2
9.599488125E0,-1.361729959E-2
9.609424125E0,-7.088008518E-3
9.619361125E0,-2.656040608E-4
9.629297125E0,-4.098749708E-3
9.639234125E0,2.666830549E-3
9.649170125E0,-1.210823487E-2
9.659107125E0,-1.596688443E-2
9.669043125E0,-9.929397869E-3
9.678980125E0,-7.584843691E-3
9.688916125E0,-4.558798814E-3
9.698853125E0,-1.046153675E-2
9.708789125E0,-2.028389060E-2
9.718726125E0,-2.531904220E-2
9.728662125E0,-1.438778332E-2
9.738599125E0,1.162648826E-2
9.748536125E0,7.358800841E-4
9.758472125E0,-1.674950684E-2
9.768409125E0,2.802729205E-3
9.778345125E0,-1.717979339E-3
9.788282125E0,-5.297097727E-5
9.798218125E0,-9.119076562E-3
9.808155125E0,-1.979304197E-3
9.818091125E0,-1.512113379E-2
9.828028125E0,-1.602005755E-2
9.837964125E0,-1.507956717E-2
9.847901125E0,-9.148626700E-3
9.857837125E0,-4.950341850E-4
9.867774125E0,-9.432099030E-3
9.877710125E0,-2.617308058E-2
9.887647125E0,-1.377686805E-2
9.897583125E0,-1.753563986E-3
9.907520125E0,-1.755897162E-3
9.917456125E0,-1.323625756E-3
9.927393125E0,-1.741888055E-2
9.937330125E0,-3.173465518E-3
9.947266125E0,6.265690142E-3
9.957203125E0,-3.710126854E-3
9.967139125E0,-1.120085664E-2
9.977076125E0,-1.891147828E-2
9.987012125E0,-4.711517352E-3
9.996949125E0,-2.208719475E-3
1.000688513E1,-1.439293389E-2
1.001682213E1,-1.049326246E-2
1.002675813E1,-3.757685730E-3
1.003669513E1,-2.052328155E-3
1.004663113E1,-1.995213420E-2
1.005656813E1,-6.784369005E-5
1.006650413E1,-7.357309344E-3
1.007644113E1,-1.571946384E-2
1.008637713E1,-2.135332579E-2
1.009631412E1,-4.578372140E-3
1.010625013E1,-1.080952602E-3
1.011618713E1,-2.204443241E-2
1.012612313E1,-2.327975265E-3
1.013606013E1,5.861845112E-4
1.014599613E1,-1.232935327E-2
1.015593313E1,-3.493216166E-2
1.016587013E1,-4.547739354E-3
1.017580613E1,1.067288619E-2
1.018574313E1,-1.491890236E-2
1.019567967E1,-2.676760308E-2
1.020561667E1,-3.100475821E-3
1.021555267E1,-1.061705555E-2
1.022548967E1,-1.750770912E-2
1.023542567E1,-1.048239372E-2
1.024536267E1,-1.790174294E-2
1.025529867E1,-1.996980376E-2
1.026523567E1,-2.333187967E-2
1.027517167E1,4.161792286E-3
1.028510867E1,2.844304964E-3
1.029504467E1,-7.878695971E-3
1.030498167E1,-4.669621823E-3
1.031491767E1,-2.085796155E-2
1.032485467E1,-1.131423552E-2
1.033479067E1,-1.364871810E-2
1.034472767E1,-1.642911711E-2
1.035466467E1,-9.156912159E-3
1.036460067E1,4.169829923E-4
1.037453767E1,-1.575695683E-2
1.038447367E1,-3.061777761E-2
1.039441067E1,-1.529822677E-2
1.040434667E1,-1.100644814E-2
1.041428367E1,-2.073405540E-3
1.042421967E1,-1.897150931E-2
1.043415667E1,-1.123109428E-2
1.044409267E1,-9.639920723E-3
1.045402967E1,-1.237069834E-2
1.046396567E1,6.248584752E-3
1.047390267E1,-1.110248180E-2
1.048383867E1,-1.962691024E-2
1.049377567E1,-1.489551921E-3
1.050371167E1,-1.236718658E-2
1.051364867E1,-8.410568757E-4
1.052358467E1,-1.184035816E-2
1.053352167E1,-6.680030467E-3
1.054345767E1,2.370212262E-4
1.055339467E1,-1.050123500E-2
1.056333067E1,-2.576850579E-2
1.057326767E1,-1.556590362E-2
1.058320467E1,3.541601419E-3
1.059314067E1,-8.387166189E-3
1.060307767E1,-1.164655494E-2
1.061301367E1,9.061383273E-3
1.062295067E1,-4.565000060E-3
1.063288667E1,-1.155156738E-2
1.064282367E1,2.337390196E-3
1.065275967E1,-1.914936859E-2
1.066269667E1,-6.587482290E-4
1.067263267E1,-1.486099094E-2
1.068256967E1,-5.496573433E-3
1.069250567E1,-5.711474597E-3
1.070244267E1,5.487257859E-4
1.071237867E1,7.264742895E-4
1.072231567E1,-1.405748872E-2
1.073225167E1,3.902850853E-3
1.074218867E1,-9.254818760E-3
1.075212467E1,-2.727915680E-3
1.076206167E1,-1.501353703E-2
1.077199767E1,-2.372594546E-3
1.078193467E1,-2.118398722E-2
1.079187167E1,1.904989741E-3
1.080180767E1,-1.044270118E-2
1.081174467E1,-1.537395963E-2
1.082168067E1,-1.576082832E-2
1.083161767E1,-2.511968412E-2
1.084155367E1,-8.803050545E-3
1.085149067E1,-2.136483978E-2
1.086142667E1,-1.572216932E-3
1.087136367E1,-1.369403059E-3
1.088129967E1,-7.583121504E-3
1.089123667E1,-1.824844057E-2
1.090117267E1,-5.253221911E-3
1.091110967E1,-5.887666508E-3
1.092104567E1,-2.128973732E-2
1.093098267E1,-4.133194605E-3
1.094091867E1,-7.805171802E-3
1.095085567E1,-1.287270008E-2
1.096079167E1,2.814971813E-3
1.097072867E1,-1.302595880E-2
1.098066467E1,-2.547220956E-2
1.099060167E1,-2.024413182E-2
1.100053867E1,-2.243016592E-2
1.101047467E1,-1.281916950E-2
1.102041167E1,-1.035868400E-2
1.103034767E1,1.193636899E-2
1.104028467E1,-4.561605934E-3
1.105022067E1,-1.589817965E-3
1.106015767E1,-3.030767189E-3
1.107009367E1,-4.336468717E-3
1.108003067E1,3.772401984E-3
1.108996667E1,-4.245204187E-4
1.109990367E1,-1.637359026E-2
1.110983967E1,-1.855284639E-2
1.111977667E1,-2.770455772E-2
1.112971267E1,-1.160406441E-2
1.113964967E1,1.850998927E-3
1.114958567E1,-9.786150221E-3
1.115952267E1,-1.309485658E-2
1.116945867E1,-7.489780756E-3
1.117939567E1,-1.951798301E-2
1.118933167E1,-1.638646441E-2
1.119926838E1,-1.752254872E-2
1.120920438E1,-1.352743977E-2
1.121914138E1,-7.741258994E-3
1.122907838E1,-1.952283208E-2
1.123901438E1,-4.367759315E-3
1.124895138E1,-1.047118580E-2
1.125888738E1,-8.072301621E-3
1.126882438E1,-2.178847283E-2
1.127876038E1,-1.621917237E-2
1.128869738E1,-8.710351620E-3
1.129863338E1,-3.515090235E-4
1.130857038E1,-3.244708587E-2
1.131850638E1,-2.320569173E-2
1.132844338E1,-1.021344236E-2
1.133837938E1,-1.481411043E-2
1.134831638E1,-1.128026457E-2
1.135825238E1,-6.606799801E-3
1.136818938E1,-7.629766753E-3
1.137812538E1,6.180484104E-3
1.138806238E1,-1.623742665E-2
1.139799838E1,-1.214284194E-2
1.140793537E1,-1.325474481E-2
1.141787138E1,-2.195616230E-2
1.142780838E1,-1.070793636E-2
1.143774438E1,-2.242224477E-4
1.144768138E1,2.553170726E-3
1.145761838E1,-4.212503177E-3
1.146755438E1,-1.578513196E-2
1.147749138E1,-1.647041878E-3
1.148742738E1,-7.920467018E-3
1.149736438E1,-1.214736782E-2
1.150730038E1,-2.019695666E-2
1.151723738E1,-1.189706930E-2
1.152717338E1,-1.544056650E-2
1.153711038E1,-1.016287194E-3
1.154704637E1,-1.435977036E-2
1.155698338E1,-1.045212296E-2
1.156691938E1,-1.120016457E-2
1.157685638E1,-2.510202827E-3
1.158679238E1,4.792486442E-3
1.159672938E1,-3.677526342E-3
1.160666538E1,-1.699929372E-2
1.161660238E1,-1.884333994E-2
1.162653838E1,8.950031502E-4
1.163647538E1,-1.510326324E-2
1.164641138E1,-9.770424409E-3
1.165634838E1,-1.151386198E-2
1.166628438E1,-7.823757268E-3
1.167622138E1,-1.151513420E-2
1.168615837E1,-9.815441117E-3
1.169609438E1,-1.066979356E-2
1.170603138E1,-1.113264864E-2
1.171596738E1,-1.103708664E-2
1.172590438E1,-1.791613143E-3
1.173584038E1,-1.428687887E-2
1.174577738E1,-1.815397492E-2
1.175571338E1,-2.165317146E-2
1.176565038E1,-1.443765139E-2
1.177558638E1,-1.217606714E-2
1.178552338E1,-2.194699862E-2
1.179545938E1,-1.414374086E-3
1.180539638E1,-1.709210000E-2
1.181533238E1,2.107421032E-3
1.182526937E1,-1.018151108E-2
1.183520538E1,-3.772629249E-3
1.184514238E1,-1.100489497E-2
1.185507838E1,-1.322770944E-2
1.186501538E1,-4.960561915E-3
1.187495138E1,-9.160308569E-3
1.188488838E1,-6.590257434E-4
1.189482438E1,-1.756328851E-2
1.190476138E1,-7.821134016E-3
1.191469838E1,-5.626369058E-4
1.192463438E1,-1.322156072E-2
1.193457138E1,3.349066997E-3
1.194450738E1,1.147228622E-2
1.195444438E1,-3.805552956E-3
1.196438038E1,-2.310665680E-2
1.197431738E1,-7.454240648E-3
1.198425338E1,-2.270066132E-3
1.199419038E1,-9.905699515E-3
1.200412638E1,-1.165758585E-2
1.201406338E1,-2.680103728E-2
1.202399938E1,-9.852223758E-3
1.203393638E1,-9.455373689E-3
1.204387238E1,-5.594784957E-3
1.205380938E1,-1.370190949E-2
1.206374538E1,-1.138240012E-2
1.207368238E1,-1.494591375E-2
1.208361838E1,-7.541518336E-3
1.209355538E1,-1.657292549E-2
1.210349138E1,-1.838634921E-2
1.211342838E1,-6.460377298E-3
1.212336438E1,-2.220818186E-2
1.213330138E1,1.554428606E-3
1.214323738E1,6.246827161E-3
1.215317438E1,-2.165463555E-2
1.216311138E1,-1.481555282E-2
1.217304738E1,-1.255946976E-2
1.218298438E1,1.191109691E-2
1.219292038E1,2.718536152E-3
1.220285763E1,-1.021024352E-2
1.221279363E1,-8.437374586E-3
1.222273063E1,-2.142626752E-2
1.223266663E1,-1.237068692E-2
1.224260363E1,-1.085396943E-2
1.225253963E1,4.827434976E-3
1.226247663E1,-1.619295355E-2
1.227241263E1,-7.330904369E-3
1.228234963E1,-2.501854328E-2
1.229228563E1,-2.268292096E-2
1.230222263E1,-7.227967107E-3
1.231215863E1,-9.089303728E-3
1.232209563E1,2.401347543E-3
1.233203163E1,1.452466070E-2
1.234196863E1,-3.250686452E-4
1.235190463E1,-5.049272856E-3
1.236184163E1,-1.513703548E-2
1.237177863E1,2.994697178E-3
1.238171463E1,-7.792738475E-3
1.239165163E1,5.300369655E-3
1.240158763E1,-8.929259040E-3
1.241152463E1,-1.319106955E-2
1.242146063E1,-4.387322363E-3
1.243139763E1,-7.561187593E-3
1.244133362E1,-4.497962646E-3
1.245127062E1,-7.451963432E-3
1.246120663E1,-7.252784654E-3
1.247114363E1,-2.011164899E-2
1.248107963E1,-3.957603404E-3
1.249101663E1,-1.511889998E-2
1.250095263E1,-2.815566813E-3
1.251088963E1,-3.512211166E-3
1.252082563E1,-1.120450087E-2
1.253076263E1,3.177599682E-3
1.254069863E1,-1.322669873E-4
1.255063563E1,1.034428637E-2
1.256057163E1,-7.300777504E-3
1.257050863E1,-6.737198420E-3
1.258044462E1,-7.367380945E-3
1.259038163E1,-6.449163663E-3
1.260031763E1,-6.911995907E-3
1.261025463E1,-7.029065844E-3
1.262019063E1,-1.397692734E-2
1.263012763E1,-5.084793549E-4
1.264006363E1,-4.852873790E-3
1.265000063E1,-1.905928721E-2
1.265993763E1,2.928038919E-3
1.266987363E1,3.569920444E-3
1.267981063E1,-3.359644519E-3
1.268974663E1,-1.527483220E-2
1.269968363E1,-9.469411575E-3
1.270961963E1,-5.362592252E-3
1.271955663E1,-2.303120487E-2
1.272949263E1,-1.187043706E-2
1.273942963E1,-9.398833854E-3
1.274936563E1,-8.773434169E-3
1.275930263E1,-1.135635489E-3
1.276923863E1,-1.406409767E-2
1.277917563E1,-7.352625862E-3
1.278911163E1,-8.058210060E-3
1.279904863E1,-1.343432057E-2
1.280898463E1,-1.370108722E-2
1.281892163E1,-1.084065445E-2
1.282885763E1,-2.367715775E-3
1.283879463E1,-2.296464255E-2
1.284873063E1,-6.651374542E-3
1.285866762E1,-1.316991679E-2
1.286860363E1,-2.138221012E-2
1.287854063E1,-9.984287464E-3
1.288847663E1,-1.620054237E-2
1.289841363E1,-5.342267468E-3
1.290835063E1,-9.446999151E-3
1.291828663E1,-7.950781176E-3
1.292822363E1,-9.091906424E-3
1.293815963E1,-1.002398914E-2
1.294809663E1,-1.575742849E-2
1.295803263E1,-3.714256450E-3
1.296796963E1,-7.192187172E-3
1.297790563E1,-8.000569304E-3
1.298784263E1,-3.498418818E-3
1.299777863E1,-4.013930820E-3
1.300771563E1,-2.455264125E-3
1.301765163E1,-1.943144422E-2
1.302758863E1,-1.859952704E-2
1.303752463E1,-8.739428956E-3
1.304746163E1,-3.135386668E-3
1.305739763E1,-6.144599102E-3
1.306733463E1,-1.265891125E-2
1.307727063E1,-6.659811891E-3
1.308720763E1,-1.480705951E-2
1.309714363E1,-2.013236777E-2
1.310708063E1,-6.626871054E-3
1.311701663E1,-7.443263414E-3
1.312695363E1,-8.376979243E-3
1.313688963E1,-1.689456803E-2
1.314682663E1,-2.893860802E-2
1.315676363E1,-2.124928189E-2
1.316669963E1,2.065732211E-3
1.317663663E1,-5.134051773E-3
1.318657263E1,-1.780989711E-2
1.319650913E1,-1.008023890E-2
1.320644513E1,-2.195605952E-2
1.321638213E1,-1.983285329E-2
1.322631813E1,-7.928698801E-3
1.323625513E1,-1.304725774E-2
1.324619113E1,6.325976991E-3
1.325612813E1,-4.289366654E-3
1.326606412E1,-1.556722724E-2
1.327600113E1,-2.374586253E-3
1.328593713E1,-2.003589557E-2
1.329587413E1,-1.562522203E-2
1.330581013E1,-6.663162620E-3
1.331574713E1,-6.600974284E-3
1.332568313E1,-1.783500588E-2
1.333562013E1,-3.364956120E-2
1.334555613E1,-1.135925337E-2
1.335549313E1,-4.072494339E-4
1.336542913E1,-5.990693991E-3
1.337536613E1,-1.478148023E-2
1.338530213E1,-2.640854978E-2
1.339523913E1,-6.079149116E-3
1.340517513E1,-1.066663469E-2
1.341511213E1,-9.655614558E-3
1.342504913E1,1.065191387E-3
1.343498513E1,-9.498530023E-3
1.344492213E1,-1.719711805E-3
1.345485813E1,1.506612771E-2
1.346479513E1,1.434194092E-3
1.347473113E1,-4.812818079E-3
1.348466813E1,-8.534225947E-3
1.349460413E1,-1.774557774E-2
1.350454113E1,-4.919351607E-3
1.351447713E1,-8.643836116E-3
1.352441413E1,-4.593250563E-3
1.353435013E1,5.943831755E-3
1.354428712E1,-7.548894736E-3
1.355422313E1,-2.101338557E-2
1.356416013E1,-2.210475923E-2
1.357409613E1,-1.897143965E-2
1.358403313E1,2.266931247E-3
1.359396913E1,7.391428761E-4
1.360390613E1,-3.153828238E-3
1.361384213E1,-1.343287704E-2
1.362377913E1,-9.901837155E-3
1.363371513E1,-2.320312672E-2
1.364365213E1,-8.055994513E-3
1.365358813E1,-1.333645737E-2
1.366352513E1,-1.766938121E-2
1.367346112E1,-3.060444550E-2
1.368339813E1,-2.043738001E-2
1.369333513E1,-1.224196595E-2
1.370327113E1,-1.042765944E-2
1.371320813E1,-2.268918387E-3
1.372314413E1,2.554068365E-4
1.373308113E1,-5.710872745E-3
1.374301713E1,7.289330894E-4
1.375295413E1,1.410709298E-4
1.376289013E1,-2.767957686E-3
1.377282713E1,2.810939290E-3
1.378276313E1,-8.521304971E-3
1.379270013E1,-1.340830503E-3
1.380263613E1,7.183304429E-3
1.381257313E1,-4.369181148E-3
1.382250913E1,-1.347998367E-2
1.383244613E1,-1.985392382E-2
1.384238213E1,-8.880778542E-4
1.385231913E1,-2.648774986E-3
1.386225513E1,-1.508366251E-2
1.387219213E1,-1.229881413E-2
1.388212813E1,-1.654099650E-3
1.389206513E1,1.556334661E-3
1.390200113E1,-6.632101571E-3
1.391193813E1,-2.511630370E-4
1.392187413E1,-1.727174542E-2
1.393181113E1,-2.114645541E-3
1.394174713E1,-9.444795025E-3
1.395168413E1,-1.260505063E-2
1.396162013E1,-1.733711775E-2
1.397155713E1,-8.731354773E-4
1.398149313E1,-2.787634938E-3
1.399143013E1,2.524195032E-3
1.400136713E1,-1.061635092E-4
1.401130313E1,-5.112622641E-3
1.402124013E1,-1.256392369E-2
1.403117613E1,-1.367757845E-2
1.404111313E1,-1.307076309E-2
1.405104913E1,-1.396851169E-2
1.406098613E1,-5.678781581E-3
1.407092213E1,3.897160096E-3
1.408085913E1,-6.866908392E-3
1.409079512E1,1.437113131E-3
1.410073213E1,-3.333280657E-3
1.411066813E1,-1.698942540E-2
1.412060513E1,-2.096455675E-2
1.413054113E1,-8.011500856E-3
1.414047813E1,-3.668339818E-3
1.415041413E1,-1.695801032E-2
1.416035113E1,-3.871446052E-3
1.417028713E1,9.982494470E-3
1.418022413E1,-4.244096414E-3
1.419016013E1,7.632975869E-3
1.420009713E1,-7.585298221E-3
1.421003313E1,-8.573799720E-3
1.421997013E1,-7.662691602E-3
1.422990613E1,-1.791717068E-2
1.423984313E1,-2.303923109E-2
1.424977913E1,3.207686576E-3
1.425971613E1,-1.389170531E-2
1.426965213E1,-9.507554378E-3
1.427958913E1,-1.082045757E-2
1.428952513E1,-8.560424214E-3
1.429946213E1,-1.208013740E-2
1.430939913E1,1.342841854E-2
1.431933513E1,-9.072446160E-3
1.432927213E1,-1.673264127E-2
1.433920813E1,-3.623932956E-3
1.434914513E1,8.330681173E-3
1.435908113E1,-1.404087783E-2
1.436901812E1,-4.796813610E-3
1.437895413E1,-9.661724442E-3
1.438889113E1,-4.607793228E-3
1.439882713E1,1.052790036E-2
1.440876413E1,-5.945202196E-4
1.441870013E1,-1.987756393E-3
1.442863713E1,-2.167215664E-3
1.443857313E1,-1.130908837E-2
1.444851013E1,-1.625680126E-2
1.445844613E1,-1.077185031E-2
1.446838313E1,-1.184332517E-2
1.447831913E1,-1.604594747E-3
1.448825613E1,-6.312633462E-3
1.449819213E1,9.066007370E-3
1.450812912E1,6.685087394E-3
1.451806513E1,-7.232807048E-3
1.452800213E1,-6.947641082E-3
1.453793813E1,2.567612892E-3
1.454787513E1,-8.228798008E-3
1.455781113E1,-4.916464544E-3
1.456774813E1,8.771664016E-3
1.457768413E1,-1.120162523E-2
1.458762113E1,-4.652990378E-4
1.459755813E1,-3.956660083E-3
1.460749413E1,3.158279888E-3
1.461743113E1,-1.214071547E-2
1.462736713E1,-7.030904519E-3
1.463730413E1,-6.913236156E-3
1.464724013E1,-1.923487499E-2
1.465717713E1,-2.082860670E-2
1.466711313E1,-5.012959591E-4
1.467705013E1,-2.097231802E-5
1.468698613E1,-1.532255553E-2
1.469692313E1,-4.020611721E-3
1.470685913E1,3.438050884E-3
1.471679613E1,-6.605885031E-3
1.472673213E1,-1.121119091E-2
1.473666913E1,-1.543959120E-2
1.474660513E1,3.924760781E-3
1.475654213E1,-1.262510019E-2
1.476647813E1,-2.074359138E-3
1.477641513E1,-2.216864463E-3
1.478635113E1,-4.846834713E-3
1.479628813E1,5.879820732E-3
1.480622413E1,-1.141693981E-3
1.481616113E1,-3.373580764E-3
1.482609713E1,-1.071049109E-2
1.483603413E1,3.345616912E-3
1.484597013E1,-4.671235518E-3
1.485590713E1,-1.855033734E-3
1.486584313E1,4.307755691E-3
1.487578013E1,1.311595338E-2
1.488571613E1,-2.800523937E-3
1.489565313E1,-6.763186553E-3
1.490558913E1,-3.553928537E-3
1.491552612E1,-4.925587114E-3
1.492546313E1,-5.786934514E-3
1.493539913E1,6.332109715E-3
1.494533613E1,-1.086861488E-2
1.495527213E1,-2.714821114E-4
1.496520913E1,1.629447697E-3
1.497514513E1,-2.089494748E-2
1.498508213E1,-1.599913320E-2
1.499501813E1,-1.052028299E-2
1.500495513E1,-2.524345780E-2
1.501489113E1,-1.207337428E-2
1.502482813E1,1.747668805E-3
1.503476413E1,7.904225006E-4
1.504470113E1,-1.394113941E-2
1.505463713E1,-6.852891063E-4
1.506457413E1,-4.158546624E-3
1.507451013E1,-1.225873330E-2
1.508444713E1,-8.173882146E-4
1.509438313E1,1.040280192E-2
1.510432013E1,-7.634912760E-3
1.511425613E1,-5.781582941E-3
1.512419313E1,-6.223657569E-3
1.513412913E1,-1.624986911E-3
1.514406613E1,-8.043598873E-3
1.515400213E1,-8.912465426E-3
1.516393913E1,7.229100005E-3
1.517387513E1,3.224919874E-3
1.518381213E1,-1.493531453E-2
1.519374813E1,-8.494873729E-3
1.520368550E1,-1.171708698E-2
1.521362150E1,-4.675100162E-4
1.522355850E1,-1.105258062E-2
1.523349450E1,-4.431264417E-3
1.524343150E1,2.159175742E-4
1.525336850E1,-1.904056470E-2
1.526330450E1,-3.256090558E-3
1.527324050E1,-5.348617178E-3
1.528317750E1,-1.289878642E-2
1.529311450E1,1.553255736E-3
1.530305050E1,-7.079632839E-3
1.531298750E1,-1.186135789E-2
1.532292350E1,-1.720709258E-2
1.533286050E1,-4.216276458E-3
1.534279650E1,4.585267743E-5
1.535273350E1,-1.289723326E-2
1.536266950E1,-9.314114323E-3
1.537260650E1,2.278038673E-3
1.538254250E1,-6.969378563E-4
1.539247950E1,-6.790647910E-3
1.540241550E1,1.113284735E-3
1.541235250E1,-7.997807865E-3
1.542228850E1,-2.991243666E-3
1.543222550E1,-9.109094040E-4
1.544216150E1,-8.974920998E-3
1.545209850E1,-9.076034431E-3
1.546203450E1,-1.194647142E-2
1.547197150E1,3.568270204E-3
1.548190750E1,3.987056469E-3
1.549184450E1,8.113176171E-3
1.550178050E1,-4.634039460E-3
1.551171750E1,3.135667609E-3
1.552165350E1,-3.651752912E-3
1.553159050E1,-1.441704109E-4
1.554152650E1,1.297949627E-2
1.555146350E1,5.098143930E-3
1.556139950E1,-1.146961957E-2
1.557133650E1,6.654727554E-3
1.558127250E1,-4.555490341E-3
1.559120950E1,-3.907082090E-3
1.560114550E1,-1.735624454E-2
1.561108250E1,-8.615899673E-3
1.562101850E1,-1.049092814E-2
1.563095550E1,7.124160756E-3
1.564089250E1,3.530174224E-3
1.565082850E1,-1.103243285E-2
1.566076450E1,-5.973449273E-3
1.567070150E1,6.026227246E-3
1.568063850E1,8.637874697E-3
1.569057450E1,-2.699972384E-3
1.570051150E1,-1.173767329E-2
1.571044750E1,-2.629737274E-3
1.572038450E1,-4.486664501E-4
1.573032050E1,-6.255385566E-3
1.574025750E1,-5.688194227E-3
1.575019350E1,-9.899491416E-3
1.576013050E1,6.250353763E-5
1.577006650E1,-1.004416889E-2
1.578000350E1,-1.022332895E-2
1.578993950E1,-9.438607483E-3
1.579987650E1,-4.464641511E-3
1.580981250E1,-9.755302733E-4
1.581974950E1,-5.880473976E-3
1.582968550E1,-8.941875093E-3
1.583962250E1,-3.911650227E-4
1.584955850E1,9.014076786E-3
1.585949550E1,-5.969036452E-3
1.586943150E1,5.801927140E-3
1.587936850E1,-6.146241347E-3
1.588930450E1,-5.958445226E-3
1.589924150E1,-1.521411252E-3
1.590917750E1,-1.130298306E-2
1.591911450E1,-3.432171692E-3
1.592905050E1,1.130631551E-2
1.593898750E1,-1.167757031E-2
1.594892350E1,-1.158816044E-2
1.595886050E1,-2.159307305E-2
1.596879650E1,-1.780835765E-2
1.597873350E1,-1.813340345E-3
1.598866950E1,-1.359317754E-4
1.599860650E1,-5.787217738E-3
1.600854250E1,-4.939748340E-3
1.601847950E1,-1.296908549E-2
1.602841650E1,-1.301639997E-2
1.603835250E1,-2.766989241E-3
1.604828950E1,-4.535824510E-3
1.605822550E1,1.225966976E-3
1.606816250E1,-6.235393113E-4
1.607809850E1,-5.388259473E-3
1.608803550E1,-5.300763657E-3
1.609797150E1,-4.709669540E-3
1.610790850E1,-1.464332605E-2
1.611784450E1,-5.512750349E-3
1.612778150E1,-1.122690530E-2
1.613771750E1,-3.866441657E-3
1.614765450E1,-8.492114574E-3
1.615759050E1,-2.396513312E-3
1.616752750E1,-3.208810338E-3
1.617746350E1,-1.463428800E-2
1.618740050E1,-1.450188282E-2
1.619733650E1,-1.354634500E-2
1.620727363E1,-1.003414183E-4
1.621720963E1,-3.690237184E-3
1.622714663E1,-3.033745615E-3
1.623708263E1,-3.151772576E-3
1.624701963E1,-1.005809486E-2
1.625695563E1,-3.524071192E-3
1.626689263E1,9.840137609E-3
1.627682863E1,-1.422730123E-2
1.628676563E1,-1.086824943E-2
1.629670163E1,-1.008449184E-2
1.630663863E1,-2.020577088E-2
1.631657463E1,-2.705757245E-2
1.632651163E1,-1.795782710E-2
1.633644763E1,-8.736445962E-3
1.634638463E1,-9.914130012E-3
1.635632063E1,-1.125556579E-2
1.636625763E1,2.579211392E-3
1.637619363E1,-9.224122020E-3
1.638613063E1,-8.292580624E-3
1.639606663E1,2.739717462E-4
1.640600363E1,1.804438873E-2
1.641593963E1,-9.749131179E-3
1.642587662E1,-1.610975977E-2
1.643581263E1,2.717664780E-3
1.644574963E1,7.139381790E-3
1.645568563E1,4.873619985E-3
1.646562263E1,1.557154641E-3
1.647555963E1,-1.320754682E-2
1.648549563E1,1.014398954E-2
1.649543263E1,1.483274158E-4
1.650536863E1,-5.572506152E-3
1.651530563E1,3.589448088E-3
1.652524163E1,-2.911785487E-3
1.653517863E1,1.170788219E-2
1.654511463E1,-2.140359814E-2
1.655505163E1,-1.993187908E-3
1.656498762E1,-2.217376095E-3
1.657492463E1,-9.310434689E-4
1.658486063E1,9.138243324E-3
1.659479763E1,-1.505608923E-2
1.660473363E1,1.708249206E-2
1.661467063E1,-3.861916917E-3
1.662460663E1,-5.225853059E-3
1.663454363E1,-7.310899354E-3
1.664447963E1,1.276250519E-2
1.665441663E1,9.211651005E-3
1.666435263E1,-1.351254992E-3
1.667428963E1,3.125932908E-3
1.668422563E1,-1.574965809E-3
1.669416263E1,1.012626974E-2
1.670409863E1,2.605473613E-3
1.671403563E1,-2.403228474E-3
1.672397163E1,-5.873450465E-3
1.673390863E1,-4.189358710E-3
1.674384463E1,5.555425887E-4
1.675378163E1,-1.639714586E-3
1.676371763E1,1.090903832E-2
1.677365463E1,-5.365368538E-3
1.678359063E1,-2.642377538E-2
1.679352763E1,-1.391495713E-3
1.680346363E1,1.468372666E-2
1.681340063E1,-2.690144037E-3
1.682333663E1,-4.904443491E-4
1.683327363E1,-2.193673858E-2
1.684320963E1,-4.301748590E-3
1.685314663E1,-3.656330185E-3
1.686308263E1,-1.032481240E-3
1.687301963E1,6.900982128E-3
1.688295563E1,-3.734376810E-3
1.689289263E1,-4.805536468E-3
1.690282863E1,2.630200940E-3
1.691276563E1,-5.479784387E-3
1.692270163E1,3.867885189E-3
1.693263863E1,-5.825918997E-3
1.694257463E1,-1.665114571E-2
1.695251163E1,-1.477573580E-2
1.696244863E1,-2.535904538E-2
1.697238462E1,-1.002193577E-2
1.698232163E1,-5.695797892E-3
1.699225763E1,8.020586881E-3
1.700219463E1,-1.302661889E-2
1.701213063E1,-8.896182301E-3
1.702206763E1,-1.156905878E-2
1.703200363E1,-7.508717969E-3
1.704194063E1,-1.520605204E-2
1.705187663E1,4.490906016E-3
1.706181363E1,1.604128111E-2
1.707174963E1,2.256264647E-3
1.708168663E1,-2.746316136E-3
1.709162263E1,1.501578684E-3
1.710155963E1,-1.467055672E-2
1.711149563E1,-4.938921507E-3
1.712143263E1,-6.625397829E-3
1.713136863E1,-8.114452965E-3
1.714130563E1,-1.472259237E-2
1.715124163E1,-2.174433549E-2
1.716117863E1,-6.543440879E-3
1.717111463E1,-4.517453746E-3
1.718105163E1,-1.053611159E-2
1.719098763E1,-1.026030574E-2
1.720092429E1,-1.380413184E-2
1.721086029E1,-9.906144908E-3
1.722079729E1,9.063261920E-3
1.723073329E1,2.029222517E-2
1.724067029E1,4.503909219E-3
1.725060629E1,3.508174075E-3
1.726054329E1,-1.092670331E-2
1.727047929E1,-8.099732143E-3
1.728041629E1,3.510967491E-3
1.729035229E1,-6.743940990E-3
1.730028929E1,1.801221077E-3
1.731022529E1,-4.802882380E-3
1.732016229E1,-5.056532768E-3
1.733009829E1,-1.694811346E-2
1.734003529E1,-9.826337267E-3
1.734997129E1,-1.496808635E-2
1.735990829E1,-8.086187616E-3
1.736984429E1,-5.414252174E-3
1.737978129E1,-3.516049543E-3
1.738971729E1,-7.074194471E-4
1.739965429E1,-3.426621405E-3
1.740959029E1,-1.120234014E-2
1.741952729E1,-3.157562690E-3
1.742946329E1,-6.475789051E-3
1.743940029E1,-1.695267702E-2
1.744933629E1,-3.345811057E-3
1.745927329E1,9.523972264E-4
1.746920929E1,-9.968303551E-3
1.747914629E1,-3.450510479E-3
1.748908229E1,-3.095682703E-3
1.749901929E1,-1.408257122E-2
1.750895629E1,-1.996354769E-2
1.751889229E1,-1.005266334E-2
1.752882929E1,-6.113688801E-3
1.753876529E1,-3.301831316E-3
1.754870229E1,-6.461577576E-3
1.755863829E1,-1.246168193E-2
1.756857529E1,-1.101810945E-2
1.757851129E1,-6.441425239E-3
1.758844829E1,-6.454275409E-4
1.759838429E1,-8.753542216E-3
1.760832129E1,-8.871578313E-3
1.761825729E1,1.508599911E-3
1.762819429E1,-6.308734557E-3
1.763813029E1,-8.982337369E-3
1.764806729E1,6.571253983E-3
1.765800329E1,5.691522115E-3
1.766794029E1,-7.782920406E-3
1.767787629E1,8.428674568E-3
1.768781329E1,-7.496139603E-3
1.769774929E1,-5.568125308E-4
1.770768629E1,-5.655486365E-3
1.771762229E1,-1.419538822E-2
1.772755929E1,-3.888022908E-2
1.773749529E1,-7.532337522E-3
1.774743229E1,-5.332032556E-3
1.775736829E1,-2.471745279E-2
1.776730529E1,1.152075073E-2
1.777724129E1,-2.324951158E-2
1.778717829E1,-1.503249937E-2
1.779711429E1,-6.045973019E-3
1.780705129E1,-1.021055187E-2
1.781698729E1,-1.131952885E-2
1.782692429E1,-1.099048593E-2
1.783686029E1,2.038863570E-2
1.784679729E1,3.828293143E-3
1.785673329E1,-9.279652296E-3
1.786667029E1,-1.095470371E-2
1.787660629E1,-8.283935424E-3
1.788654329E1,-2.392092041E-2
1.789647929E1,-1.346328485E-2
1.790641629E1,-5.959907030E-3
1.791635229E1,-1.560161618E-2
1.792628929E1,-7.668333251E-3
1.793622529E1,2.240522846E-3
1.794616229E1,-6.372464639E-3
1.795609829E1,-1.523679332E-3
1.796603529E1,-3.061947010E-3
1.797597129E1,-1.601558991E-2
1.798590829E1,-1.191232231E-2
1.799584429E1,2.944671507E-3
1.800578129E1,-3.752158284E-3
1.801571729E1,-1.510216346E-2
1.802565429E1,-6.626137868E-3
1.803559029E1,-3.928026999E-3
1.804552729E1,-1.788215134E-2
1.805546329E1,-4.481879377E-3
1.806540029E1,-2.726926678E-3
1.807533629E1,9.368064024E-3
1.808527329E1,-7.497238240E-3
1.809520929E1,-1.335024629E-2
1.810514629E1,-1.832473988E-2
1.811508229E1,5.861982156E-3
1.812501929E1,7.568891756E-3
1.813495529E1,-9.261978173E-3
1.814489229E1,-1.020485312E-2
1.815482829E1,-7.430541152E-3
1.816476529E1,-1.780400421E-2
1.817470129E1,-1.572551776E-2
1.818463829E1,-2.826603432E-3
1.819457429E1,-1.695076983E-2
1.820451075E1,-2.223009750E-2
1.821444675E1,-3.134333713E-3
1.822438375E1,-1.064010523E-4
1.823432075E1,-1.458823660E-2
1.824425675E1,-8.416029965E-3
1.825419375E1,5.617438350E-5
1.826412975E1,3.431479619E-3
1.827406675E1,-4.084846582E-3
1.828400275E1,-1.033810340E-2
1.829393975E1,-1.238994390E-2
1.830387575E1,-2.224400976E-2
1.831381275E1,-1.048643081E-2
1.832374875E1,2.646952299E-3
1.833368575E1,-1.052967965E-2
1.834362175E1,-5.565535175E-3
1.835355875E1,-9.231739389E-3
1.836349475E1,-1.730371553E-2
1.837343175E1,-1.113681250E-2
1.838336775E1,6.261294452E-3
1.839330475E1,6.412572884E-3
1.840324075E1,2.156227010E-3
1.841317775E1,-8.235392114E-3
1.842311375E1,-4.403056169E-3
1.843305075E1,-7.274249189E-3
1.844298675E1,-1.865755152E-3
1.845292375E1,8.521494549E-4
1.846285975E1,2.699168392E-3
1.847279675E1,2.810656065E-3
1.848273275E1,-1.079500163E-2
1.849266975E1,-9.683699466E-3
1.850260575E1,-6.376694734E-3
1.851254275E1,-6.691928180E-3
1.852247875E1,-1.335956301E-2
1.853241575E1,-1.489148554E-2
1.854235175E1,-2.388761868E-2
1.855228875E1,-1.814295771E-2
1.856222475E1,-5.992514393E-3
1.857216175E1,-3.417185917E-3
1.858209775E1,3.953494364E-5
1.859203475E1,-2.485397842E-3
1.860197075E1,-2.623188850E-3
1.861190775E1,-9.299943962E-3
1.862184375E1,-2.600549161E-3
1.863178075E1,-5.958655360E-3
1.864171675E1,-1.100629853E-2
1.865165375E1,3.061293766E-3
1.866158975E1,-4.326304612E-3
1.867152675E1,-6.080247753E-3
1.868146275E1,-1.983817973E-2
1.869139975E1,-4.593561196E-3
1.870133575E1,2.840641318E-3
1.871127275E1,1.564057097E-3
1.872120875E1,-7.396675267E-3
1.873114575E1,9.040921445E-3
1.874108175E1,5.346678004E-3
1.875101875E1,-9.292299184E-3
1.876095475E1,-1.529136657E-2
1.877089175E1,-6.215309298E-3
1.878082775E1,-1.021585319E-2
1.879076475E1,-7.576468012E-3
1.880070075E1,-2.117333889E-3
1.881063775E1,1.672653139E-3
1.882057375E1,9.297072887E-3
1.883051075E1,-3.160077450E-3
1.884044675E1,8.890314528E-3
1.885038375E1,-1.208285088E-2
1.886031975E1,-1.280575174E-2
1.887025675E1,-7.645691279E-5
1.888019275E1,9.695505816E-3
1.889012975E1,-1.762073969E-2
1.890006575E1,-1.028794525E-2
1.891000275E1,3.108336444E-3
1.891993875E1,-8.781387296E-3
1.892987575E1,-1.372250151E-3
1.893981175E1,6.232684208E-3
1.894974875E1,-2.603612097E-3
1.895968475E1,4.896789577E-3
1.896962175E1,8.298402715E-3
1.897955775E1,2.313905631E-2
1.898949475E1,-9.311805130E-4
1.899943075E1,-1.155962558E-3
1.900936775E1,1.143037470E-2
1.901930375E1,-9.651875538E-3
1.902924075E1,-7.912621242E-3
1.903917675E1,8.024552024E-3
1.904911375E1,3.397392179E-4
1.905904975E1,-1.009801124E-2
1.906898675E1,-1.021012246E-2
1.907892275E1,6.416592845E-3
1.908885975E1,6.083870286E-3
1.909879575E1,7.227772961E-3
1.910873275E1,-1.067652014E-2
1.911866875E1,-1.055818026E-2
1.912860575E1,-2.950317725E-3
1.913854175E1,1.287753317E-3
1.914847875E1,-4.012274870E-3
1.915841475E1,-1.208182990E-2
1.916835175E1,-9.234770348E-3
1.917828775E1,-6.780463248E-3
1.918822475E1,-1.732879460E-2
1.919816075E1,-1.039051820E-2
1.920809813E1,3.473241529E-3
1.921803413E1,-1.175188477E-2
1.922797113E1,-5.919344255E-3
1.923790713E1,7.132602674E-3
1.924784413E1,-1.791469018E-2
1.925778113E1,-9.884628982E-3
1.926771713E1,-7.410859333E-3
1.927765312E1,-8.407620024E-3
1.928759013E1,1.053245936E-2
1.929752613E1,-3.658851797E-3
1.930746313E1,-4.424243190E-3
1.931739913E1,2.296500800E-3
1.932733613E1,-4.810054356E-3
1.933727313E1,1.752449360E-2
1.934720913E1,-4.589870141E-3
1.935714613E1,7.065773110E-3
1.936708213E1,3.799644071E-3
1.937701913E1,3.863472368E-3
1.938695513E1,-7.940799796E-3
1.939689213E1,-1.588880126E-2
1.940682813E1,1.084097079E-2
1.941676513E1,9.708266908E-3
1.942670113E1,-4.136272387E-3
1.943663813E1,-6.963606721E-3
1.944657413E1,-3.562292797E-3
1.945651113E1,-2.257999397E-2
1.946644713E1,-6.218057033E-3
1.947638413E1,-5.291958572E-5
1.948632013E1,6.005092759E-3
1.949625713E1,4.499450717E-3
1.950619313E1,6.365717500E-3
1.951613013E1,2.147524708E-3
1.952606613E1,8.632029765E-3
1.953600313E1,-1.080396660E-2
1.954593913E1,3.698706510E-3
1.955587612E1,4.817267444E-3
1.956581213E1,-6.088458980E-4
1.957574913E1,-2.091817189E-2
1.958568513E1,-1.583704655E-2
1.959562213E1,-5.005796752E-3
1.960555813E1,-5.913652356E-3
1.961549513E1,2.788984822E-4
1.962543113E1,8.508427392E-3
1.963536813E1,-9.879220307E-3
1.964530413E1,-8.408026588E-3
1.965524113E1,-1.026071458E-2
1.966517713E1,2.435691941E-3
1.967511413E1,1.818230536E-3
1.968505013E1,-3.973148775E-3
1.969498712E1,9.847305017E-5
1.970492313E1,-7.287864522E-3
1.971486013E1,-5.902261706E-5
1.972479613E1,-5.739996904E-3
1.973473313E1,7.347574644E-4
1.974466913E1,1.858631142E-3
1.975460613E1,-5.384773985E-3
1.976454213E1,-1.373547502E-4
1.977447913E1,2.780764459E-3
1.978441513E1,-1.784319883E-2
1.979435213E1,-2.959467703E-4
1.980428813E1,-5.274873739E-3
1.981422513E1,-1.045298976E-2
1.982416112E1,-1.455393218E-2
1.983409813E1,-9.786336373E-3
1.984403413E1,-2.642911782E-3
1.985397113E1,-3.658842661E-3
1.986390713E1,2.789510158E-4
1.987384413E1,9.812543776E-3
1.988378013E1,3.879958775E-3
1.989371713E1,-6.037700123E-3
1.990365313E1,1.037050291E-2
1.991359013E1,1.503687565E-2
1.992352613E1,-1.335030111E-2
1.993346313E1,-2.184482081E-2
1.994339913E1,-9.792083090E-3
1.995333613E1,-1.353115138E-2
1.996327213E1,-1.510816371E-2
1.997320913E1,3.222386842E-3
1.998314513E1,-8.992158864E-3
1.999308213E1,-4.562774235E-3
2.000301813E1,-1.427346454E-3
2.001295513E1,-9.823909302E-3
2.002289113E1,3.568018957E-3
2.003282813E1,-1.185781073E-2
2.004276413E1,-1.784933384E-3
2.005270113E1,-1.027762354E-3
2.006263713E1,-9.798674912E-3
2.007257413E1,7.782769657E-3
2.008251013E1,-6.503113364E-3
2.009244713E1,-5.989579365E-3
2.010238313E1,-5.769194153E-3
2.011232013E1,-8.786636086E-3
2.012225613E1,-4.926087325E-3
2.013219313E1,-6.816247751E-3
2.014212913E1,6.202440856E-3
2.015206613E1,1.413693662E-2
2.016200213E1,2.067921034E-2
2.017193913E1,-3.682893903E-3
2.018187513E1,-1.268087943E-2
2.019181213E1,-1.603127689E-2
2.020174829E1,-2.167508253E-2
2.021168529E1,-3.336928315E-3
2.022162129E1,-9.532779632E-3
2.023155829E1,-1.858523791E-4
2.024149429E1,1.283225379E-2
2.025143129E1,-1.050878728E-2
2.026136729E1,-1.532528271E-2
2.027130429E1,1.689813347E-3
2.028124029E1,-6.591694113E-3
2.029117729E1,-7.916369399E-3
2.030111329E1,1.680254519E-3
2.031105029E1,-2.691295207E-4
2.032098629E1,1.606150197E-3
2.033092329E1,6.730241147E-3
2.034085929E1,-1.642556424E-2
2.035079629E1,-1.265518137E-2
2.036073229E1,-1.981801598E-2
2.037066929E1,-8.887822609E-3
2.038060529E1,8.325642517E-3
2.039054229E1,-1.875672121E-2
2.040047829E1,2.973288603E-3
2.041041529E1,-8.929589088E-4
2.042035129E1,5.032095518E-3
2.043028829E1,-5.651617153E-3
2.044022429E1,-2.986323782E-3
2.045016129E1,-7.251961248E-3
2.046009729E1,-8.609657313E-3
2.047003429E1,3.188966350E-3
2.047997029E1,-6.831272354E-3
2.048990729E1,-1.200700609E-3
2.049984329E1,-2.496404084E-2
2.050978029E1,-1.191164166E-2
2.051971629E1,-1.069301111E-2
2.052965329E1,-2.268093382E-2
2.053958929E1,4.733435274E-4
2.054952629E1,2.255017546E-3
2.055946229E1,-1.635143022E-2
2.056939929E1,-2.214107136E-2
2.057933529E1,-4.249516509E-3
2.058927229E1,-1.667987244E-2
2.059920829E1,3.955038395E-3
2.060914529E1,3.028942219E-3
2.061908129E1,-1.049508515E-2
2.062901829E1,-1.126505838E-2
2.063895429E1,-3.196798421E-3
2.064889129E1,-1.545005909E-2
2.065882729E1,-1.361872942E-2
2.066876429E1,6.490934710E-4
2.067870029E1,3.949314519E-3
2.068863729E1,1.093750467E-2
2.069857329E1,-6.242601634E-3
2.070851029E1,9.312124900E-4
2.071844629E1,-1.856927227E-3
2.072838329E1,-1.106822420E-2
2.073831929E1,6.718220094E-3
2.074825629E1,-1.791372173E-4
2.075819229E1,-4.757034271E-3
2.076812929E1,6.340850845E-3
2.077806529E1,7.644435042E-3
2.078800229E1,4.693333881E-3
2.079793829E1,-1.407534443E-4
2.080787529E1,7.249345989E-3
2.081781129E1,-5.583037992E-3
2.082774829E1,-7.054935205E-3
2.083768429E1,-1.113053816E-2
2.084762129E1,5.343519137E-3
2.085755729E1,1.096657630E-2
2.086749429E1,-4.467233929E-3
2.087743029E1,-9.953605570E-3
2.088736729E1,8.148761960E-3
2.089730329E1,-6.961975896E-3
2.090724029E1,-1.077711966E-2
2.091717629E1,-1.126847306E-2
2.092711329E1,1.565317903E-4
2.093704929E1,2.784352731E-3
2.094698629E1,-2.338836011E-3
2.095692229E1,1.424075668E-3
2.096685929E1,-4.703127968E-3
2.097679529E1,-1.059735204E-2
2.098673229E1,-1.660062668E-2
2.099666829E1,-2.173306590E-2
2.100660529E1,-1.525933708E-3
2.101654129E1,-4.521396048E-3
2.102647829E1,-1.868526412E-2
2.103641429E1,-6.227223000E-3
2.104635129E1,-1.544345585E-3
2.105628729E1,-2.375150418E-3
2.106622429E1,-4.204570607E-3
2.107616029E1,-1.376959900E-2
2.108609729E1,-2.027048540E-2
2.109603329E1,-1.822815347E-2
2.110597029E1,-1.696564368E-2
2.111590629E1,-6.206762313E-3
2.112584329E1,-1.287443140E-2
2.113577929E1,-2.149460000E-2
2.114571629E1,4.044119355E-3
2.115565229E1,9.232209907E-3
2.116558929E1,-6.787525588E-3
2.117552529E1,-1.504846958E-2
2.118546229E1,3.615934148E-3
2.119539829E1,1.922592601E-2
2.120533500E1,-2.031258764E-3
2.121527100E1,6.299838109E-3
2.122520800E1,-1.940131278E-3
2.123514400E1,-4.337227028E-3
2.124508100E1,-5.973684532E-3
2.125501700E1,-1.349740655E-3
2.126495400E1,-5.550012644E-4
2.127489000E1,3.437692286E-3
2.128482700E1,-3.277468527E-2
2.129476300E1,-1.263384817E-2
2.130470000E1,2.828732184E-3
2.131463600E1,-1.403443676E-3
2.132457300E1,8.756283098E-3
2.133450900E1,-9.480118146E-4
2.134444600E1,-7.079208002E-3
2.135438200E1,1.264871974E-2
2.136431900E1,-4.324020543E-3
2.137425500E1,-5.931712487E-3
2.138419200E1,-1.471034976E-2
2.139412800E1,-5.923307114E-3
2.140406500E1,1.810336795E-3
2.141400100E1,-9.724355887E-3
2.142393800E1,-1.297023666E-2
2.143387400E1,-1.201533838E-2
2.144381000E1,-8.328901883E-3
2.145374700E1,-1.024074497E-2
2.146368400E1,-4.379094006E-3
2.147362000E1,-1.611768321E-2
2.148355600E1,-1.039507035E-3
2.149349300E1,-3.297534983E-3
2.150342900E1,-5.569107458E-4
2.151336600E1,2.541008061E-3
2.152330200E1,-1.524795556E-2
2.153323900E1,-9.545659495E-3
2.154317500E1,-3.981266355E-3
2.155311200E1,-1.092605007E-2
2.156304800E1,-1.810053114E-2
2.157298500E1,-2.481443206E-2
2.158292100E1,3.190478403E-4
2.159285800E1,-2.112142202E-3
2.160279400E1,-1.104095471E-2
2.161273100E1,-2.009363910E-2
2.162266700E1,-9.949887106E-3
2.163260400E1,-7.185974505E-3
2.164254000E1,5.941698435E-3
2.165247700E1,-1.087799555E-2
2.166241300E1,-4.142998969E-3
2.167235000E1,6.733820282E-3
2.168228600E1,-7.077070114E-3
2.169222300E1,1.545419097E-3
2.170215900E1,4.060541808E-3
2.171209600E1,-1.629625855E-3
2.172203200E1,-4.122325864E-3
2.173196900E1,-7.311680506E-3
2.174190500E1,-5.166380480E-4
2.175184200E1,6.825162470E-3
2.176177800E1,4.769452752E-3
2.177171500E1,-1.390212066E-2
2.178165100E1,2.262785663E-3
2.179158800E1,-8.315375629E-3
2.180152400E1,-2.133421955E-2
2.181146100E1,-6.153561787E-3
2.182139700E1,8.328929292E-3
2.183133400E1,4.040569912E-3
2.184127000E1,-9.915379398E-3
2.185120700E1,-2.321481658E-4
2.186114300E1,-1.105778144E-2
2.187108000E1,1.431785770E-2
2.188101600E1,-7.370472432E-3
2.189095300E1,-1.070425330E-2
2.190088900E1,-5.610439964E-3
2.191082600E1,-7.852219047E-3
2.192076200E1,-1.855449663E-2
2.193069900E1,-6.545877981E-3
2.194063500E1,-5.394061008E-3
2.195057200E1,4.310638185E-3
2.196050800E1,-1.474893682E-2
2.197044500E1,4.435821134E-4
2.198038100E1,-2.295029860E-3
2.199031800E1,-4.710201728E-3
2.200025400E1,-7.725935178E-3
2.201019100E1,-1.209746663E-2
2.202012700E1,-3.881157911E-4
2.203006400E1,5.019249916E-3
2.204000000E1,-9.070819903E-3
2.204993700E1,7.321947394E-4
2.205987300E1,-1.883943419E-2
2.206981000E1,-1.729953568E-5
2.207974600E1,-1.405162894E-2
2.208968300E1,7.574147398E-3
2.209961900E1,-8.204771890E-3
2.210955600E1,2.167473764E-3
2.211949200E1,-5.652530780E-3
2.212942900E1,-1.621685975E-2
2.213936500E1,-9.092114274E-3
2.214930200E1,1.683244365E-3
2.215923800E1,-3.266636103E-3
2.216917500E1,7.860188163E-4
2.217911100E1,-2.291620430E-2
2.218904800E1,-3.106333315E-5
2.219898400E1,-6.573880662E-3
2.220892150E1,1.013774261E-2
2.221885750E1,-2.896863667E-3
2.222879450E1,-1.108903892E-2
2.223873050E1,4.594125361E-3
2.224866750E1,2.603235226E-3
2.225860350E1,-1.234271850E-3
2.226854050E1,1.181660842E-2
2.227847650E1,3.976015281E-3
2.228841350E1,-1.077437877E-2
2.229834950E1,-4.628386390E-3
2.230828650E1,-1.562991350E-2
2.231822250E1,-6.938993598E-3
2.232815950E1,-9.288279223E-4
2.233809550E1,8.680577644E-3
2.234803250E1,-4.436986009E-3
2.235796850E1,-1.302401049E-2
2.236790550E1,-6.941156611E-3
2.237784150E1,5.652439417E-3
2.238777850E1,6.898414835E-3
2.239771450E1,-8.478083541E-3
2.240765150E1,5.736027192E-3
2.241758750E1,5.249557123E-3
2.242752450E1,2.940989588E-3
2.243746050E1,-1.211710049E-2
2.244739750E1,-1.624177894E-2
2.245733350E1,8.903936713E-3
2.246727050E1,-2.648953144E-3
2.247720650E1,-8.523714663E-3
2.248714250E1,-1.441496716E-2
2.249707950E1,5.900153511E-3
2.250701550E1,-5.438952092E-3
2.251695250E1,-5.925735079E-3
2.252688850E1,-6.645600416E-3
2.253682550E1,2.705513535E-3
2.254676150E1,5.965907278E-3
2.255669850E1,-7.681048661E-3
2.256663450E1,-6.837562679E-3
2.257657150E1,1.055779654E-2
2.258650750E1,5.731011378E-3
2.259644450E1,9.927382178E-3
2.260638050E1,-2.837270033E-5
2.261631750E1,8.032315574E-4
2.262625350E1,-2.062210178E-3
2.263619050E1,-5.384410818E-3
2.264612650E1,-1.547113191E-2
2.265606350E1,-1.509575208E-3
2.266599950E1,-2.073692190E-3
2.267593650E1,5.121313522E-3
2.268587250E1,5.026595481E-3
2.269580950E1,2.949168838E-3
2.270574550E1,9.828593927E-3
2.271568250E1,1.690137684E-3
2.272561850E1,2.237087607E-3
2.273555550E1,-3.281187904E-3
2.274549150E1,-1.391333316E-2
2.275542850E1,-9.422856546E-3
2.276536450E1,3.613330310E-3
2.277530150E1,-2.881087605E-3
2.278523750E1,1.613092624E-2
2.279517450E1,-2.306144137E-3
2.280511050E1,-6.192361261E-3
2.281504750E1,-1.264914914E-3
2.282498350E1,-1.039506578E-2
2.283492050E1,-7.092001070E-3
2.284485650E1,1.729942148E-2
2.285479350E1,-3.608965455E-3
2.286472950E1,1.161314587E-2
2.287466650E1,8.686902230E-3
2.288460250E1,-8.583628067E-3
2.289453950E1,9.049153228E-3
2.290447550E1,5.018722296E-3
2.291441250E1,-1.221611943E-2
2.292434850E1,1.409619797E-3
2.293428550E1,4.163343168E-3
2.294422150E1,-1.262912928E-2
2.295415850E1,-1.855033734E-3
2.296409450E1,-1.903262756E-2
2.297403150E1,-1.619210958E-2
2.298396750E1,6.198119398E-3
2.299390450E1,-6.932774079E-3
2.300384050E1,2.420790677E-3
2.301377750E1,-1.238932492E-2
2.302371350E1,-9.766727644E-3
2.303365050E1,-1.555406415E-2
2.304358650E1,-5.056315782E-3
2.305352350E1,-5.768029278E-3
2.306345950E1,-1.459713990E-3
2.307339650E1,-3.620758101E-3
2.308333250E1,-1.958977128E-4
2.309326950E1,-2.560284458E-2
2.310320550E1,-1.017409813E-2
2.311314250E1,2.095454796E-3
2.312307850E1,9.937509738E-3
2.313301550E1,-5.368796925E-3
2.314295150E1,-1.201951822E-2
2.315288850E1,1.988973801E-3
2.316282450E1,5.439545950E-3
2.317276050E1,-3.115510703E-3
2.318269750E1,1.250801655E-4
2.319263350E1,-9.388159260E-3
2.320257050E1,-1.781927550E-3
2.321250638E1,-3.572511720E-4
2.322244338E1,-1.280472619E-2
2.323237938E1,-2.488931296E-3
2.324231638E1,-9.615156851E-3
2.325225238E1,-1.439716741E-2
2.326218938E1,3.020906865E-3
2.327212538E1,1.417278508E-2
2.328206238E1,7.851919835E-4
2.329199838E1,4.253616412E-3
2.330193538E1,-1.593640354E-4
2.331187138E1,-8.085908960E-3
2.332180838E1,-1.934042865E-2
2.333174438E1,-7.996887385E-3
2.334168138E1,-8.106445021E-3
2.335161738E1,-3.584322638E-3
2.336155438E1,7.860242981E-3
2.337149038E1,3.598285150E-3
2.338142738E1,8.160657389E-3
2.339136338E1,2.697985244E-3
2.340130038E1,-9.056937334E-3
2.341123638E1,-2.238908466E-2
2.342117338E1,-1.131049308E-2
2.343110938E1,1.594178709E-2
2.344104638E1,1.994069559E-3
2.345098238E1,1.808294381E-2
2.346091938E1,1.141960075E-2
2.347085538E1,1.567898900E-4
2.348079238E1,-6.665592869E-3
2.349072838E1,1.356447365E-2
2.350066538E1,-1.068980885E-2
2.351060138E1,-1.732788554E-2
2.352053838E1,-3.192301090E-3
2.353047438E1,4.018677115E-3
2.354041137E1,-7.576666726E-4
2.355034738E1,-3.702294782E-3
2.356028438E1,-9.834032294E-3
2.357022038E1,2.217325845E-3
2.358015738E1,5.605065550E-3
2.359009338E1,-1.309784300E-2
2.360003038E1,-7.232717969E-3
2.360996638E1,-8.130800044E-3
2.361990338E1,-6.469316001E-3
2.362983938E1,-1.077805612E-2
2.363977638E1,-1.131118743E-3
2.364971238E1,3.071101557E-3
2.365964938E1,-8.762235381E-4
2.366958537E1,-6.646022969E-4
2.367952238E1,-4.990568866E-3
2.368945838E1,1.105226541E-3
2.369939438E1,-2.751343371E-3
2.370933138E1,-9.169144488E-3
2.371926738E1,-1.910758156E-3
2.372920438E1,-2.003530856E-2
2.373914038E1,-5.648113391E-3
2.374907738E1,3.145436570E-3
2.375901338E1,-1.684094039E-3
2.376895038E1,1.533340942E-3
2.377888638E1,2.232446379E-3
2.378882338E1,6.546229727E-3
2.379875938E1,-1.442281065E-2
2.380869637E1,-1.645253452E-3
2.381863238E1,-4.215339990E-4
2.382856938E1,-1.324818268E-2
2.383850538E1,-1.014386849E-2
2.384844238E1,1.724739040E-3
2.385837838E1,-6.090628845E-4
2.386831538E1,-3.351589751E-3
2.387825138E1,-8.959549216E-3
2.388818838E1,-1.206718902E-2
2.389812438E1,-4.275968308E-3
2.390806138E1,-7.799916160E-3
2.391799738E1,1.519026684E-2
2.392793438E1,-4.166221095E-3
2.393787037E1,-6.954308278E-3
2.394780738E1,6.176148942E-3
2.395774338E1,5.188702682E-3
2.396768038E1,3.896392649E-5
2.397761638E1,-5.447067388E-3
2.398755338E1,1.257505396E-2
2.399748938E1,1.120926772E-2
2.400742638E1,-4.567997900E-3
2.401736238E1,1.051307219E-2
2.402729938E1,1.104459780E-2
2.403723538E1,2.284000092E-4
2.404717238E1,-9.460132546E-4
2.405710838E1,-8.629215793E-3
2.406704538E1,-1.152570716E-2
2.407698138E1,1.774406112E-3
2.408691838E1,1.285280355E-2
2.409685438E1,1.403810954E-2
2.410679138E1,3.211576345E-3
2.411672738E1,-4.071889061E-3
2.412666438E1,-2.651620936E-4
2.413660038E1,-1.441283155E-2
2.414653738E1,5.396018454E-3
2.415647338E1,1.576241461E-2
2.416640938E1,-3.164371499E-4
2.417634638E1,-7.982088905E-4
2.418628238E1,1.340805150E-2
2.419621938E1,-1.039974812E-2
2.420615513E1,-5.912259074E-3
2.421609213E1,-1.072880019E-2
2.422602813E1,-2.163453803E-3
2.423596513E1,-2.953369240E-4
2.424590113E1,1.295471184E-3
2.425583813E1,-7.223122597E-3
2.426577413E1,-1.037332373E-2
2.427571112E1,-3.689083729E-3
2.428564713E1,-9.379061814E-3
2.429558413E1,-1.072366560E-2
2.430552013E1,-4.127994922E-3
2.431545713E1,-1.064939454E-2
2.432539313E1,-5.004451436E-3
2.433533013E1,-2.072059081E-2
2.434526613E1,-2.017469842E-3
2.435520313E1,-5.490099241E-3
2.436513913E1,-6.659044444E-3
2.437507613E1,-1.649432384E-2
2.438501213E1,-7.803461035E-3
2.439494913E1,-1.172290450E-2
2.440488512E1,-1.138434158E-2
2.441482213E1,-6.313613327E-3
2.442475813E1,-1.222506384E-2
2.443469513E1,-1.236478260E-3
2.444463113E1,4.868202175E-3
2.445456813E1,2.316228300E-3
2.446450413E1,-1.577632002E-2
2.447444113E1,-3.963452904E-3
2.448437713E1,1.189522378E-3
2.449431413E1,6.347015547E-3
2.450425013E1,-7.423828274E-3
2.451418713E1,-7.259249710E-3
2.452412313E1,-9.828073159E-4
2.453406013E1,-2.970550004E-3
2.454399613E1,5.405536168E-3
2.455393313E1,-1.055588934E-2
2.456386913E1,-1.129189619E-2
2.457380513E1,4.737338747E-3
2.458374213E1,-7.767804440E-3
2.459367813E1,-3.761363081E-3
2.460361513E1,-2.424986511E-3
2.461355113E1,-1.055381769E-2
2.462348813E1,-4.824503374E-3
2.463342413E1,-1.318283548E-2
2.464336113E1,1.155186431E-2
2.465329713E1,-1.179275361E-2
2.466323413E1,-3.648989189E-3
2.467317012E1,9.005726231E-3
2.468310713E1,4.914710380E-3
2.469304313E1,-8.399038778E-3
2.470298013E1,-1.322015031E-2
2.471291613E1,-1.790374492E-2
2.472285313E1,-2.909796063E-3
2.473278913E1,-4.440649655E-3
2.474272613E1,-1.278902094E-2
2.475266213E1,-7.218778299E-3
2.476259913E1,2.374558845E-3
2.477253513E1,7.383861642E-3
2.478247213E1,7.614410960E-3
2.479240813E1,2.197047884E-3
2.480234513E1,5.713095143E-3
2.481228113E1,1.328665554E-3
2.482221813E1,9.004819456E-3
2.483215413E1,1.218299587E-2
2.484209113E1,-7.739913678E-3
2.485202713E1,-1.029355035E-2
2.486196413E1,-7.338554857E-3
2.487190013E1,-7.556576058E-3
2.488183713E1,-6.601554437E-3
2.489177313E1,-1.610682475E-2
2.490171013E1,2.794834322E-3
2.491164613E1,1.950480393E-4
2.492158313E1,-1.024199207E-4
2.493151913E1,6.872639121E-3
2.494145613E1,-9.240108216E-3
2.495139213E1,-6.484384001E-3
2.496132813E1,-1.488461278E-3
2.497126513E1,-2.271983607E-3
2.498120113E1,-9.004109111E-3
2.499113813E1,2.073148582E-3
2.500107413E1,7.525492168E-3
2.501101113E1,3.094606907E-3
2.502094713E1,3.240481233E-3
2.503088413E1,3.356726621E-3
2.504082013E1,2.175787773E-3
2.505075713E1,-1.116909552E-4
2.506069313E1,-5.892947274E-3
2.507063013E1,-1.287629748E-2
2.508056613E1,-1.082317333E-3
2.509050313E1,-2.568069706E-4
2.510043913E1,-1.077035196E-2
2.511037613E1,1.784529104E-3
2.512031213E1,4.001256523E-3
2.513024913E1,6.959579908E-3
2.514018513E1,-1.984939223E-2
2.515012213E1,1.087520898E-2
2.516005813E1,9.813790878E-3
2.516999513E1,-4.097861205E-3
2.517993113E1,6.338016316E-3
2.518986813E1,9.036401273E-3
2.519980413E1,-5.267420823E-3
2.520974088E1,-3.533689405E-3
2.521967688E1,4.553160591E-3
2.522961388E1,-4.906261610E-3
2.523954988E1,2.569143218E-4
2.524948688E1,4.261797946E-3
2.525942288E1,-4.527638408E-3
2.526935988E1,7.365417788E-3
2.527929588E1,-3.536087677E-3
2.528923188E1,-1.722107793E-3
2.529916888E1,-7.494072521E-3
2.530910488E1,-9.171743758E-3
2.531904188E1,-1.262910187E-2
2.532897788E1,-1.947346651E-3
2.533891488E1,-8.667789144E-4
2.534885088E1,2.381283143E-3
2.535878788E1,-1.252678245E-2
2.536872388E1,6.425313419E-5
2.537866088E1,8.943688644E-3
2.538859688E1,-5.929442123E-4
2.539853388E1,-1.152026422E-2
2.540846988E1,6.769945112E-3
2.541840688E1,-4.598894496E-3
2.542834288E1,4.137265957E-3
2.543827988E1,1.715105752E-2
2.544821588E1,1.421137670E-2
2.545815288E1,5.987194797E-3
2.546808888E1,-6.198829743E-3
2.547802588E1,-1.214553486E-4
2.548796188E1,-1.295413169E-2
2.549789888E1,-1.712453263E-2
2.550783488E1,9.427305912E-3
2.551777188E1,-5.250027641E-3
2.552770788E1,1.008757990E-2
2.553764488E1,-1.105475962E-2
2.554758088E1,-1.696317004E-2
2.555751788E1,-5.954587434E-3
2.556745388E1,3.121065558E-3
2.557739088E1,8.802617714E-3
2.558732688E1,4.793805492E-3
2.559726388E1,1.130367285E-3
2.560719988E1,3.637301610E-3
2.561713688E1,-9.576679431E-3
2.562707288E1,-3.427781712E-3
2.563700988E1,-7.102338765E-3
2.564694588E1,-2.281202108E-3
2.565688188E1,7.723395294E-4
2.566681888E1,-6.842907399E-3
2.567675488E1,9.555789339E-3
2.568669188E1,-2.987680519E-3
2.569662788E1,1.964842160E-2
2.570656488E1,1.864228709E-2
2.571650088E1,1.641259530E-2
2.572643788E1,-1.326479700E-3
2.573637388E1,5.460639324E-3
2.574631088E1,2.885379370E-3
2.575624688E1,2.122296485E-2
2.576618388E1,3.471898497E-3
2.577611988E1,1.029239233E-2
2.578605688E1,6.305516304E-3
2.579599288E1,8.346512052E-3
2.580592988E1,7.858989027E-3
2.581586588E1,1.058025578E-2
2.582580288E1,-2.935096691E-4
2.583573888E1,-3.305481258E-4
2.584567588E1,-6.841902409E-3
2.585561188E1,-1.309838204E-2
2.586554888E1,-1.173620692E-2
2.587548488E1,-7.051353785E-3
2.588542188E1,-5.508312404E-3
2.589535788E1,1.582000283E-2
2.590529488E1,1.766217726E-3
2.591523088E1,-1.247619719E-2
2.592516788E1,-6.168942705E-3
2.593510388E1,6.338916239E-3
2.594504087E1,5.421810157E-3
2.595497688E1,2.088360479E-3
2.596491388E1,-9.439539383E-3
2.597484988E1,-1.115938595E-2
2.598478588E1,1.493257822E-3
2.599472288E1,6.611019617E-3
2.600465888E1,1.283941206E-2
2.601459588E1,-4.721786524E-3
2.602453188E1,1.939917261E-2
2.603446888E1,1.142000046E-3
2.604440488E1,7.930176593E-3
2.605434188E1,-2.075820942E-3
2.606427788E1,-1.129654655E-3
2.607421487E1,2.937661700E-3
2.608415088E1,8.030808088E-4
2.609408788E1,-1.635508930E-2
2.610402388E1,-7.335377717E-4
2.611396088E1,-6.849394154E-3
2.612389688E1,-7.186447307E-3
2.613383388E1,-2.955310699E-4
2.614376988E1,-7.916022220E-3
2.615370688E1,-3.865936878E-3
2.616364288E1,4.944727609E-3
2.617357988E1,-4.828747173E-3
2.618351588E1,6.322279084E-4
2.619345288E1,1.112950805E-2
2.620338888E1,-1.653993212E-2
2.621332638E1,-1.642213357E-3
2.622326238E1,8.815684870E-3
2.623319938E1,-1.382407632E-2
2.624313538E1,-8.089960897E-3
2.625307238E1,-1.427031709E-2
2.626300838E1,2.913557924E-5
2.627294438E1,1.022527726E-2
2.628288138E1,9.871881595E-3
2.629281738E1,-2.762686056E-3
2.630275438E1,1.365461442E-2
2.631269038E1,-7.884090941E-3
2.632262738E1,-1.633817577E-2
2.633256338E1,4.772808049E-3
2.634250038E1,-1.859459802E-2
2.635243638E1,-2.213148284E-4
2.636237338E1,-1.620728265E-2
2.637230938E1,-1.539488513E-2
2.638224638E1,-9.578689411E-3
2.639218238E1,-1.427245955E-2
2.640211938E1,-3.623674856E-3
2.641205538E1,7.998429132E-3
2.642199238E1,1.339137780E-2
2.643192838E1,-6.758179874E-3
2.644186538E1,-2.603998105E-3
2.645180138E1,-4.740079630E-3
2.646173838E1,-8.054345415E-3
2.647167438E1,8.154081556E-3
2.648161137E1,-1.538902649E-3
2.649154738E1,-1.517164255E-2
2.650148438E1,-7.499328163E-4
2.651142038E1,1.654431982E-2
2.652135738E1,2.395000345E-2
2.653129338E1,-1.026936664E-2
2.654122938E1,-4.080739827E-4
2.655116638E1,-7.476464636E-4
2.656110238E1,-3.116655021E-3
2.657103938E1,1.225239272E-2
2.658097538E1,2.062477414E-3
2.659091238E1,5.919490436E-3
2.660084838E1,1.586385923E-2
2.661078537E1,1.974746338E-2
2.662072138E1,-1.229788223E-3
2.663065838E1,-1.089028155E-2
2.664059438E1,-1.319932646E-2
2.665053138E1,9.182768958E-3
2.666046738E1,-1.083785989E-3
2.667040438E1,4.943099068E-3
2.668034038E1,1.526565253E-2
2.669027738E1,5.531146238E-4
2.670021338E1,-9.868229369E-3
2.671015038E1,-2.256381135E-3
2.672008638E1,1.171388472E-2
2.673002338E1,1.203476210E-2
2.673995938E1,-6.770207779E-3
2.674989637E1,-4.046197857E-3
2.675983238E1,-6.266536389E-3
2.676976838E1,-3.843733447E-3
2.677970538E1,-9.439137387E-3
2.678964138E1,-1.240619277E-2
2.679957838E1,1.284466542E-3
2.680951438E1,5.352317370E-3
2.681945138E1,2.858226362E-3
2.682938738E1,1.946044732E-3
2.683932438E1,-3.009169037E-4
2.684926038E1,-9.052764340E-3
2.685919738E1,-8.951664611E-3
2.686913338E1,2.945763292E-5
2.687907037E1,2.235191830E-3
2.688900638E1,1.130479204E-3
2.689894338E1,-1.279213184E-3
2.690887938E1,1.275361331E-2
2.691881638E1,-1.535273264E-3
2.692875238E1,2.578223761E-2
2.693868938E1,1.397421044E-2
2.694862538E1,-1.477439048E-2
2.695856238E1,-2.385259706E-3
2.696849838E1,-3.841061087E-3
2.697843538E1,-2.583176536E-3
2.698837138E1,-7.967550808E-3
2.699830838E1,4.920315484E-3
2.700824437E1,6.658174214E-3
2.701818038E1,1.161132547E-2
2.702811738E1,1.868034652E-2
2.703805338E1,-6.814520995E-3
2.704799038E1,-9.991630744E-3
2.705792638E1,2.669596556E-4
2.706786338E1,-8.061202189E-3
2.707779938E1,-2.595467109E-3
2.708773638E1,-6.076252917E-3
2.709767238E1,5.410613653E-3
2.710760938E1,1.872680448E-3
2.711754538E1,7.313251945E-3
2.712748238E1,-1.400517784E-3
2.713741838E1,1.397631635E-2
2.714735537E1,4.732306944E-3
2.715729138E1,-1.669179071E-3
2.716722838E1,-2.131796840E-2
2.717716438E1,7.313172002E-3
2.718710138E1,3.137115708E-3
2.719703738E1,-1.046187936E-3
2.720697438E1,3.429220675E-3
2.721691063E1,2.376502587E-3
2.722684763E1,1.206755675E-2
2.723678363E1,-1.864434960E-3
2.724671963E1,1.452302188E-3
2.725665663E1,1.112403085E-2
2.726659263E1,-4.878619811E-3
2.727652963E1,2.817512839E-3
2.728646563E1,9.050439158E-3
2.729640263E1,-1.278591917E-3
2.730633863E1,5.582154058E-3
2.731627563E1,-1.307109884E-2
2.732621163E1,-9.700274952E-3
2.733614863E1,-6.198288419E-3
2.734608463E1,6.620448253E-3
2.735602163E1,7.431121306E-3
2.736595763E1,-1.076201054E-2
2.737589463E1,-6.637389190E-4
2.738583063E1,-1.712857086E-2
2.739576763E1,-2.455248137E-3
2.740570363E1,-1.978875934E-2
2.741564063E1,1.452197121E-3
2.742557663E1,-5.490028434E-3
2.743551363E1,-1.104907000E-2
2.744544963E1,4.727556081E-3
2.745538663E1,7.867520023E-4
2.746532263E1,-7.695630156E-3
2.747525862E1,3.389037056E-3
2.748519563E1,4.927345847E-3
2.749513163E1,5.152331174E-3
2.750506863E1,-4.058931540E-3
2.751500463E1,1.383001490E-2
2.752494163E1,-4.696113593E-4
2.753487763E1,-6.957330101E-3
2.754481463E1,7.314761714E-3
2.755475063E1,1.059540373E-2
2.756468763E1,1.031720645E-3
2.757462363E1,-1.814295086E-3
2.758456063E1,1.665839762E-4
2.759449663E1,-9.569052926E-3
2.760443363E1,4.766520008E-3
2.761436963E1,9.288530471E-3
2.762430663E1,2.092234259E-3
2.763424263E1,-1.549154691E-2
2.764417963E1,-6.025962294E-3
2.765411563E1,4.384603179E-3
2.766405263E1,9.910962009E-4
2.767398863E1,-1.366315455E-2
2.768392463E1,-6.484249241E-3
2.769386163E1,-1.193200870E-2
2.770379763E1,-2.406716247E-3
2.771373463E1,-2.435755895E-3
2.772367063E1,1.658651798E-3
2.773360763E1,1.377773029E-2
2.774354363E1,-6.102243334E-3
2.775348063E1,-1.019984872E-2
2.776341663E1,4.227699086E-3
2.777335363E1,5.755163119E-3
2.778328963E1,1.313959578E-2
2.779322663E1,-2.686886955E-3
2.780316263E1,-7.269048365E-5
2.781309963E1,-1.229900143E-3
2.782303563E1,7.005893968E-3
2.783297263E1,-7.483924404E-3
2.784290863E1,-7.247838504E-3
2.785284563E1,6.307925996E-3
2.786278163E1,-3.202949418E-5
2.787271863E1,-1.022184659E-3
2.788265463E1,1.067625519E-2
2.789259063E1,-1.528000790E-3
2.790252763E1,-7.440810325E-3
2.791246363E1,1.926591548E-2
2.792240063E1,7.498599545E-3
2.793233663E1,-1.468416063E-2
2.794227363E1,-8.558201815E-3
2.795220963E1,-1.198289775E-2
2.796214663E1,-9.634781568E-3
2.797208263E1,3.832657998E-3
2.798201963E1,-3.245410253E-3
2.799195563E1,-4.991151304E-3
2.800189263E1,-9.780900290E-3
2.801182863E1,-1.335353992E-2
2.802176563E1,-4.790694590E-3
2.803170163E1,1.758675731E-3
2.804163863E1,2.490214943E-3
2.805157463E1,8.850450679E-3
2.806151163E1,-1.779456188E-3
2.807144763E1,8.325731596E-3
2.808138463E1,-1.923414180E-5
2.809132063E1,-4.048602981E-3
2.810125663E1,1.387944443E-2
2.811119363E1,-2.890491115E-3
2.812112963E1,3.898948522E-3
2.813106663E1,4.871975456E-3
2.814100263E1,2.749216903E-3
2.815093963E1,-1.287311121E-2
2.816087563E1,1.112927050E-2
2.817081263E1,1.985358121E-3
2.818074863E1,4.452028885E-3
2.819068563E1,8.311108989E-4
2.820062163E1,-2.966424976E-3
2.821055825E1,-1.267765432E-3
2.822049425E1,-7.714670151E-4
2.823043125E1,4.880949561E-3
2.824036725E1,1.132363332E-2
2.825030425E1,1.130731822E-2
2.826024025E1,-1.383508325E-3
2.827017725E1,2.393788418E-3
2.828011325E1,-1.031883499E-2
2.829005025E1,9.017984828E-3
2.829998625E1,1.804064743E-3
2.830992225E1,6.652249340E-3
2.831985925E1,3.832726520E-3
2.832979525E1,-1.630352645E-2
2.833973225E1,-5.898767081E-4
2.834966825E1,-1.320573098E-2
2.835960525E1,-1.036709508E-2
2.836954125E1,-9.900242875E-3
2.837947825E1,3.973386318E-3
2.838941425E1,-9.987418922E-3
2.839935125E1,-5.918713852E-3
2.840928725E1,1.141078881E-2
2.841922425E1,1.130794177E-2
2.842916025E1,-1.020937786E-2
2.843909725E1,-8.203017726E-3
2.844903325E1,6.283831357E-3
2.845897025E1,1.187167503E-3
2.846890625E1,1.081855951E-2
2.847884325E1,-5.415583786E-3
2.848877925E1,3.606350196E-3
2.849871525E1,8.170615928E-4
2.850865225E1,-8.957715109E-3
2.851858825E1,1.292182354E-2
2.852852525E1,1.934083521E-2
2.853846125E1,-2.044072389E-3
2.854839825E1,-4.090954182E-3
2.855833425E1,3.321348683E-3
2.856827125E1,-6.380328687E-3
2.857820725E1,4.466646924E-3
2.858814425E1,-2.105821498E-2
2.859808025E1,2.983272267E-3
2.860801725E1,3.988066027E-3
2.861795325E1,-1.006519146E-2
2.862789025E1,1.010802460E-2
2.863782625E1,-5.780897720E-3
2.864776325E1,-3.275173951E-3
2.865769925E1,8.523157351E-3
2.866763625E1,1.254679318E-2
2.867757225E1,1.859029484E-2
2.868750825E1,-4.413690793E-3
2.869744525E1,-7.780017355E-4
2.870738125E1,-3.486852294E-3
2.871731825E1,8.123333424E-3
2.872725425E1,-1.553379761E-2
2.873719125E1,7.400153903E-4
2.874712725E1,-1.028034159E-2
2.875706425E1,-1.112213736E-2
2.876700025E1,-8.350963702E-3
2.877693725E1,3.469694371E-3
2.878687325E1,-4.817269729E-3
2.879681025E1,2.911815180E-3
2.880674625E1,-5.660997822E-3
2.881668325E1,-9.900064718E-3
2.882661925E1,4.146662615E-3
2.883655625E1,-1.058680878E-2
2.884649225E1,5.571345845E-4
2.885642925E1,7.638971549E-3
2.886636525E1,4.067046836E-3
2.887630125E1,1.502497793E-2
2.888623825E1,2.101847904E-3
2.889617425E1,-3.534822303E-3
2.890611125E1,1.414093146E-2
2.891604725E1,-2.284025217E-3
2.892598425E1,-4.099327577E-3
2.893592025E1,-3.625552361E-3
2.894585725E1,-1.670127873E-2
2.895579325E1,-1.753063775E-3
2.896573025E1,-2.014862806E-2
2.897566625E1,1.330027315E-2
2.898560325E1,7.338886047E-3
2.899553925E1,1.982496868E-2
2.900547625E1,-4.182814853E-5
2.901541225E1,-7.891228655E-4
2.902534925E1,1.356844108E-3
2.903528525E1,7.209285710E-3
2.904522225E1,7.529226621E-3
2.905515825E1,-3.755787669E-3
2.906509425E1,-7.304193329E-3
2.907503125E1,8.327316740E-3
2.908496725E1,-4.832755714E-3
2.909490425E1,-5.176318462E-3
2.910484025E1,-1.203314498E-2
2.911477725E1,6.118469357E-3
2.912471325E1,-1.506720122E-3
2.913465025E1,-3.828204065E-3
2.914458625E1,-1.441036019E-2
2.915452325E1,-6.441952859E-3
2.916445925E1,-7.082533606E-3
2.917439625E1,-5.299799780E-3
2.918433225E1,-2.144883183E-2
2.919426925E1,6.656666729E-3
2.920420525E1,-2.679829183E-3
2.921414225E1,1.073990533E-2
2.922407825E1,-1.219304348E-4
2.923401525E1,5.931728475E-3
2.924395125E1,-1.104221551E-3
2.925388725E1,-6.152321538E-4
2.926382425E1,8.363254275E-3
2.927376025E1,3.922568075E-4
2.928369725E1,5.945398626E-3
2.929363325E1,-3.951210296E-5
2.930357025E1,4.878957854E-3
2.931350625E1,-5.738014332E-3
2.932344325E1,-1.177755770E-2
2.933337925E1,-4.481360894E-3
2.934331625E1,1.864930603E-3
2.935325225E1,-3.757272314E-3
2.936318925E1,8.424161249E-3
2.937312525E1,5.882735203E-3
2.938306225E1,-7.433620077E-3
2.939299825E1,-1.518044535E-3
2.940293525E1,2.128405455E-2
2.941287125E1,1.358281472E-2
2.942280725E1,3.975421423E-5
2.943274425E1,-4.343357468E-3
2.944268025E1,2.841582354E-2
2.945261725E1,1.283205736E-2
2.946255325E1,7.534114528E-3
2.947249025E1,1.470234639E-2
2.948242625E1,6.458722490E-3
2.949236325E1,-5.501455630E-3
2.950229925E1,2.277054240E-3
2.951223625E1,6.369248671E-3
2.952217225E1,2.397802440E-2
2.953210925E1,1.169899487E-2
2.954204525E1,2.184364451E-3
2.955198225E1,1.045160790E-2
2.956191825E1,1.792630695E-3
2.957185525E1,-5.926070837E-3
2.958179125E1,7.402186724E-4
2.959172825E1,-1.413943996E-2
2.960166425E1,-4.365195448E-3
2.961160025E1,1.347330505E-2
2.962153725E1,-1.938489033E-4
2.963147325E1,-8.542816329E-3
2.964141025E1,-9.828845174E-3
2.965134625E1,-2.899074645E-3
2.966128325E1,6.528893646E-3
2.967121925E1,7.832265424E-3
2.968115625E1,4.831753008E-3
2.969109225E1,8.780539907E-3
2.970102925E1,-5.256502975E-3
2.971096525E1,-6.836534848E-3
2.972090225E1,-8.683503536E-4
2.973083825E1,-4.943286362E-3
2.974077525E1,-1.267691885E-2
2.975071125E1,-6.207733043E-4
2.976064825E1,-5.950469258E-3
2.977058425E1,1.587973579E-2
2.978052025E1,7.951619430E-3
2.979045725E1,-2.807284780E-3
2.980039325E1,-1.375897808E-3
2.981033025E1,-1.790798872E-3
2.982026625E1,4.206153466E-3
2.983020325E1,7.046493287E-3
2.984013925E1,8.015486556E-3
2.985007625E1,5.006890821E-3
2.986001225E1,2.523507527E-3
2.986994925E1,1.273952974E-3
2.987988525E1,8.709336352E-3
2.988982225E1,8.968669502E-4
2.989975825E1,-5.378522489E-3
2.990969525E1,-1.279692838E-2
2.991963125E1,-1.104557766E-2
2.992956825E1,-7.919311279E-3
2.993950425E1,1.432455915E-3
2.994944025E1,2.389431557E-2
2.995937725E1,4.352756410E-3
2.996931325E1,2.865843731E-4
2.997925025E1,2.313943090E-2
2.998918625E1,-2.497167648E-3
2.999912325E1,3.381668651E-3
3.000905925E1,8.609013206E-3
3.001899625E1,-1.189165378E-2
3.002893225E1,1.881131502E-3
3.003886925E1,8.032923136E-3
3.004880525E1,-6.534263492E-5
3.005874225E1,2.693129315E-3
3.006867825E1,-1.152732885E-3
3.007861525E1,-1.948979760E-3
3.008855125E1,-1.326927834E-2
3.009848825E1,9.008640703E-4
3.010842425E1,9.623075717E-3
3.011836025E1,-2.326328452E-3
3.012829725E1,5.588972003E-3
3.013823325E1,6.925179551E-3
3.014817025E1,1.914761443E-2
3.015810625E1,8.663415152E-3
3.016804325E1,-9.681684917E-3
3.017797925E1,-6.376468611E-3
3.018791625E1,-1.677287514E-2
3.019785225E1,-1.288675852E-2
3.020778925E1,1.013184743E-2
3.021772513E1,6.323939601E-3
3.022766213E1,-9.182917422E-3
3.023759813E1,-1.048662039E-2
3.024753513E1,-8.093110628E-3
3.025747113E1,-4.229919200E-3
3.026740813E1,7.658986843E-3
3.027734413E1,1.811430864E-2
3.028728013E1,2.240047075E-2
3.029721713E1,-1.061027530E-3
3.030715313E1,-3.097797751E-3
3.031709013E1,-2.395172564E-3
3.032702613E1,2.174353378E-3
3.033696313E1,9.360076636E-3
3.034689913E1,-4.025419685E-3
3.035683613E1,-2.914805026E-3
3.036677213E1,-1.029129369E-2
3.037670913E1,2.797223458E-3
3.038664513E1,-1.061943670E-2
3.039658213E1,1.124026710E-3
3.040651813E1,-1.459172666E-3
3.041645513E1,5.634774431E-3
3.042639113E1,-7.593785820E-3
3.043632813E1,-1.297882476E-2
3.044626413E1,-1.023825077E-2
3.045620013E1,1.121157920E-3
3.046613713E1,4.702979503E-3
3.047607313E1,-3.980994551E-4
3.048601013E1,-1.996977406E-2
3.049594613E1,-6.926588821E-3
3.050588313E1,2.242190673E-2
3.051581913E1,7.604162344E-3
3.052575613E1,1.380214241E-2
3.053569213E1,7.395224883E-3
3.054562913E1,-4.446030920E-4
3.055556513E1,-8.533734872E-3
3.056550213E1,-4.029366556E-3
3.057543813E1,-4.845809166E-3
3.058537513E1,-3.560568325E-3
3.059531113E1,-7.128559873E-3
3.060524713E1,-2.712365740E-3
3.061518413E1,-2.604426825E-2
3.062512013E1,-1.940138130E-3
3.063505713E1,2.725469442E-3
3.064499312E1,4.135900084E-3
3.065493013E1,-5.433157410E-3
3.066486613E1,-1.817918304E-2
3.067480313E1,1.177885505E-2
3.068473913E1,1.988549878E-2
3.069467613E1,-1.985508413E-2
3.070461213E1,-1.426493583E-2
3.071454913E1,-1.021372901E-2
3.072448513E1,5.837741336E-3
3.073442213E1,5.274213643E-3
3.074435813E1,2.757099224E-5
3.075429513E1,2.832580840E-3
3.076423113E1,-1.505045900E-3
3.077416712E1,-1.116146445E-2
3.078410413E1,-8.420710021E-3
3.079404013E1,-5.226031216E-3
3.080397713E1,-1.618755287E-2
3.081391313E1,6.197980070E-4
3.082385013E1,8.379943965E-3
3.083378613E1,1.546800958E-3
3.084372313E1,6.848238416E-3
3.085365913E1,1.524853572E-2
3.086359613E1,1.426213556E-2
3.087353213E1,7.757485018E-3
3.088346913E1,-1.267161296E-2
3.089340513E1,7.231770081E-3
3.090334213E1,1.195691647E-2
3.091327813E1,-5.709924856E-3
3.092321413E1,7.022131411E-3
3.093315113E1,3.540511918E-4
3.094308713E1,-3.267949442E-3
3.095302413E1,-3.421648988E-4
3.096296013E1,-9.951529352E-3
3.097289713E1,-1.178140864E-3
3.098283313E1,-2.259300174E-3
3.099277013E1,-8.695446930E-3
3.100270613E1,1.106884775E-2
3.101264313E1,8.951762826E-3
3.102257913E1,5.807662436E-3
3.103251613E1,-1.305115893E-2
3.104245213E1,-9.230346107E-3
3.105238913E1,-1.491542486E-3
3.106232513E1,1.380150744E-3
3.107226113E1,-2.182619423E-3
3.108219813E1,6.969970136E-3
3.109213413E1,1.603629271E-2
3.110207113E1,1.282008884E-3
3.111200713E1,-1.439978495E-2
3.112194413E1,-4.886029330E-3
3.113188013E1,1.105264914E-2
3.114181713E1,1.427389623E-2
3.115175313E1,9.682175992E-3
3.116169013E1,2.479511797E-3
3.117162612E1,7.022046901E-3
3.118156313E1,-2.193493873E-3
3.119149913E1,8.792522131E-4
3.120143613E1,5.072048446E-3
3.121137213E1,-8.569265844E-3
3.122130913E1,1.077037023E-2
3.123124513E1,9.801829210E-4
3.124118113E1,-4.045115209E-3
3.125111813E1,1.425862723E-2
3.126105413E1,-1.041607921E-2
3.127099113E1,-3.949179759E-3
3.128092713E1,-1.070124747E-2
3.129086413E1,3.357818406E-3
3.130080012E1,2.160614934E-2
3.131073713E1,4.300337036E-3
3.132067313E1,4.452197906E-3
3.133061013E1,-1.287134334E-2
3.134054613E1,-8.486968568E-3
3.135048313E1,-5.571254482E-4
3.136041913E1,-2.645670937E-3
3.137035613E1,-1.521252052E-2
3.138029213E1,-8.405977779E-3
3.139022813E1,5.641103585E-3
3.140016513E1,1.966077156E-2
3.141010113E1,5.803800076E-3
3.142003813E1,-1.772667936E-3
3.142997412E1,9.611863224E-3
3.143991113E1,2.150674439E-3
3.144984713E1,-8.710231707E-3
3.145978413E1,-5.195776443E-4
3.146972013E1,-1.475190839E-3
3.147965713E1,2.024036539E-3
3.148959313E1,4.828902490E-3
3.149953013E1,1.370767790E-3
3.150946613E1,-4.387599877E-3
3.151940313E1,-1.010200151E-3
3.152933913E1,1.504036342E-4
3.153927513E1,-2.502379892E-4
3.154921213E1,-1.467671685E-3
3.155914813E1,-6.479486958E-3
3.156908512E1,6.973923859E-4
3.157902113E1,-7.752254501E-3
3.158895813E1,1.159935695E-2
3.159889413E1,1.085310605E-2
3.160883113E1,4.026193984E-3
3.161876713E1,-1.314406798E-2
3.162870413E1,1.639782422E-2
3.163864013E1,-5.736152816E-3
3.164857713E1,-7.843338589E-3
3.165851313E1,-5.729627232E-3
3.166845013E1,-6.091652107E-3
3.167838613E1,-5.989892283E-3
3.168832213E1,4.870650696E-3
3.169825912E1,8.987225275E-3
3.170819513E1,9.011141758E-3
3.171813213E1,4.747802066E-4
3.172806813E1,1.503892445E-3
3.173800513E1,-1.403959875E-3
3.174794113E1,4.267028463E-3
3.175787813E1,-1.099472744E-2
3.176781413E1,8.796708828E-3
3.177775113E1,-1.986066182E-3
3.178768713E1,8.707721515E-3
3.179762413E1,-4.413667952E-3
3.180756013E1,6.521920385E-3
3.181749713E1,5.380274369E-3
3.182743312E1,5.200278342E-3
3.183736913E1,3.804230480E-3
3.184730613E1,5.503004228E-3
3.185724213E1,-5.895199366E-3
3.186717913E1,-6.992963855E-3
3.187711513E1,-1.541610869E-2
3.188705213E1,-1.299936539E-3
3.189698813E1,8.987750611E-3
3.190692513E1,-1.025657585E-2
3.191686113E1,-6.199014753E-3
3.192679813E1,-3.593844920E-3
3.193673413E1,-7.155075625E-3
3.194667113E1,-1.595810219E-3
3.195660713E1,-4.366437981E-3
3.196654412E1,-1.109992707E-2
3.197648013E1,1.390029341E-3
3.198641613E1,2.528353864E-2
3.199635313E1,2.106870571E-3
3.200628913E1,5.120504962E-3
3.201622613E1,-6.408411311E-5
3.202616213E1,-6.362382760E-3
3.203609913E1,3.819723318E-3
3.204603513E1,7.074301823E-3
3.205597213E1,9.256617464E-3
3.206590813E1,-4.072007833E-3
3.207584513E1,-1.761882107E-2
3.208578113E1,-2.159895224E-3
3.209571812E1,4.835281894E-3
3.210565413E1,-6.577530603E-3
3.211559013E1,2.726995200E-3
3.212552713E1,3.747032834E-3
3.213546313E1,-8.167450209E-3
3.214540013E1,6.805722762E-3
3.215533613E1,1.144912234E-2
3.216527313E1,-5.183766810E-3
3.217520913E1,4.709521076E-4
3.218514613E1,1.615372810E-2
3.219508213E1,-4.111193314E-3
3.220501913E1,6.409295246E-3
3.221495588E1,1.647016296E-2
3.222489288E1,-2.180600306E-3
3.223482888E1,9.396217454E-3
3.224476588E1,2.834768977E-3
3.225470188E1,6.017394753E-3
3.226463788E1,-6.481905787E-3
3.227457488E1,-8.995801953E-3
3.228451088E1,-2.822403030E-3
3.229444787E1,-1.053370190E-2
3.230438388E1,1.884523344E-3
3.231432088E1,3.477398534E-3
3.232425688E1,-8.320941904E-3
3.233419388E1,-3.664527708E-3
3.234412988E1,-6.426028332E-3
3.235406688E1,-1.577658040E-2
3.236400288E1,-5.247012670E-3
3.237393988E1,1.623890558E-3
3.238387588E1,-1.691012483E-3
3.239381288E1,-1.018345825E-2
3.240374888E1,1.318104020E-2
3.241368488E1,2.517144112E-3
3.242362188E1,5.617534281E-3
3.243355788E1,4.357224049E-3
3.244349488E1,-1.976340618E-3
3.245343088E1,1.231618676E-2
3.246336788E1,4.604826223E-3
3.247330388E1,-1.806570366E-3
3.248324088E1,-1.232930188E-2
3.249317688E1,-1.994505587E-2
3.250311388E1,-9.173459094E-4
3.251304988E1,1.046124439E-2
3.252298688E1,2.314727667E-3
3.253292288E1,3.050216034E-3
3.254285888E1,2.464857213E-3
3.255279588E1,-4.596432270E-3
3.256273188E1,3.337252652E-5
3.257266888E1,1.240041407E-2
3.258260488E1,8.910976213E-3
3.259254188E1,-9.428932169E-4
3.260247788E1,1.554913057E-2
3.261241488E1,7.698521786E-4
3.262235088E1,-5.901370919E-3
3.263228788E1,6.094868076E-3
3.264222388E1,-1.721354507E-2
3.265216088E1,-6.381073294E-3
3.266209688E1,-4.157278966E-4
3.267203288E1,-4.741833794E-3
3.268196988E1,-7.902888826E-3
3.269190588E1,-4.292210320E-3
3.270184288E1,9.872667314E-3
3.271177888E1,-3.277097137E-3
3.272171588E1,3.427836529E-3
3.273165188E1,6.589588202E-3
3.274158888E1,-8.285225923E-3
3.275152488E1,9.003051587E-3
3.276146188E1,-7.063294896E-3
3.277139788E1,1.553339333E-2
3.278133488E1,1.393520540E-2
3.279127088E1,-5.452275064E-3
3.280120788E1,7.888844088E-3
3.281114388E1,1.117562796E-3
3.282107988E1,4.374471051E-4
3.283101688E1,-3.921069726E-3
3.284095288E1,-4.193054333E-3
3.285088988E1,3.438818331E-3
3.286082588E1,-7.320035629E-3
3.287076288E1,-7.368679438E-4
3.288069888E1,3.711549828E-3
3.289063588E1,-8.665580449E-3
3.290057188E1,8.049222250E-3
3.291050888E1,9.700875662E-3
3.292044488E1,9.284786882E-3
3.293038188E1,4.688146762E-3
3.294031788E1,-9.775334015E-4
3.295025388E1,5.423980022E-3
3.296019088E1,4.044450545E-3
3.297012688E1,2.231845669E-3
3.298006388E1,2.352887602E-4
3.298999988E1,-7.471965021E-3
3.299993688E1,-5.919867307E-3
3.300987288E1,3.057684938E-3
3.301980988E1,-1.160339290E-2
3.302974588E1,-1.340165382E-2
3.303968288E1,-1.426910654E-2
3.304961888E1,-6.196152815E-3
3.305955588E1,5.802998368E-3
3.306949188E1,-5.199979129E-4
3.307942787E1,5.941627629E-3
3.308936488E1,3.287754601E-3
3.309930088E1,-1.771601276E-3
3.310923788E1,-5.327791041E-3
3.311917388E1,1.271101086E-2
3.312911088E1,1.805727316E-2
3.313904688E1,9.618902723E-3
3.314898388E1,-7.616242783E-3
3.315891988E1,-1.999896218E-3
3.316885688E1,1.638851208E-3
3.317879288E1,9.920945673E-3
3.318872988E1,1.074886344E-2
3.319866588E1,7.592623229E-3
3.320860288E1,8.656686286E-3
3.321853850E1,-1.588678671E-2
3.322847450E1,-9.613103473E-3
3.323841150E1,-5.144092538E-3
3.324834750E1,1.231342532E-2
3.325828450E1,1.115882178E-2
3.326822050E1,4.061976203E-3
3.327815750E1,1.683274515E-2
3.328809350E1,8.222192482E-3
3.329803050E1,-4.232169008E-3
3.330796650E1,-4.550499651E-3
3.331790350E1,-4.366307789E-3
3.332783950E1,6.967558160E-3
3.333777550E1,-5.321212923E-3
3.334771250E1,2.707900386E-3
3.335764850E1,1.083015573E-2
3.336758550E1,3.512376761E-3
3.337752150E1,-8.903390821E-4
3.338745850E1,1.830425864E-2
3.339739450E1,-1.512204171E-3
3.340733150E1,1.956297916E-3
3.341726750E1,4.936571200E-3
3.342720450E1,-1.773902931E-2
3.343714050E1,3.609541040E-3
3.344707750E1,2.076344223E-2
3.345701350E1,7.105397133E-3
3.346695050E1,6.265440036E-3
3.347688650E1,-8.780258966E-3
3.348682250E1,-9.534419593E-3
3.349675950E1,9.834564482E-3
3.350669550E1,1.870377878E-2
3.351663250E1,5.431860059E-3
3.352656850E1,-4.674332715E-3
3.353650550E1,-3.448628406E-3
3.354644150E1,-4.761086209E-3
3.355637850E1,2.609897854E-3
3.356631450E1,-4.961248278E-4
3.357625150E1,9.572159259E-3
3.358618750E1,4.013085715E-4
3.359612450E1,7.039410390E-3
3.360606050E1,1.500346886E-2
3.361599650E1,7.465391471E-3
3.362593350E1,-1.567021818E-2
3.363586950E1,-9.210675708E-3
3.364580650E1,-7.451111474E-4
3.365574250E1,6.208352025E-3
3.366567950E1,-3.930660530E-3
3.367561550E1,1.873463884E-3
3.368555250E1,1.772832389E-3
3.369548850E1,5.266651092E-4
3.370542550E1,-6.462308478E-3
3.371536150E1,-8.398945131E-3
3.372529750E1,1.431249927E-2
3.373523450E1,7.534982474E-3
3.374517050E1,-1.594067474E-3
3.375510750E1,-3.162816048E-3
3.376504350E1,1.866129739E-3
3.377498050E1,-5.853090277E-3
3.378491650E1,-3.251556682E-3
3.379485350E1,8.913644005E-3
3.380478950E1,4.321759315E-3
3.381472650E1,9.527512570E-4
3.382466250E1,-4.412690371E-3
3.383459950E1,8.228448546E-4
3.384453550E1,-5.659136306E-3
3.385447150E1,-3.263867812E-3
3.386440850E1,-1.056844943E-2
3.387434450E1,8.483624691E-4
3.388428150E1,1.512696160E-2
3.389421750E1,-1.998603435E-3
3.390415450E1,1.206056979E-2
3.391409050E1,-3.675683099E-4
3.392402750E1,-3.966945244E-3
3.393396350E1,-1.532277937E-2
3.394390050E1,-1.609092763E-2
3.395383650E1,-7.687884879E-3
3.396377350E1,6.739971279E-3
3.397370950E1,-1.487923608E-2
3.398364550E1,-2.328202073E-2
3.399358250E1,-1.182997250E-2
3.400351850E1,-1.224959245E-2
3.401345550E1,2.307478033E-3
3.402339150E1,3.499471773E-3
3.403332850E1,1.478165153E-2
3.404326450E1,9.655632831E-3
3.405320150E1,3.459822626E-3
3.406313750E1,-2.243355091E-3
3.407307450E1,9.702933608E-3
3.408301050E1,1.189440380E-2
3.409294750E1,1.822864912E-3
3.410288350E1,9.375816153E-3
3.411281950E1,1.372049153E-2
3.412275650E1,-1.900073283E-2
3.413269250E1,-1.710186325E-2
3.414262950E1,-8.971227659E-4
3.415256550E1,7.975179597E-3
3.416250250E1,-9.304838721E-4
3.417243850E1,-3.304003465E-3
3.418237550E1,-2.022969879E-2
3.419231150E1,-1.537098235E-2
3.420224850E1,-3.017862202E-3
3.421218450E1,-3.291343787E-2
3.422212100E1,-2.118116411E-2
3.423205700E1,8.613885124E-4
3.424199300E1,-6.217442618E-3
3.425193000E1,-7.504403363E-3
3.426186600E1,1.489941354E-2
3.427180300E1,-1.502685772E-2
3.428173900E1,-1.406971877E-2
3.429167600E1,-3.714085144E-3
3.430161200E1,-7.681400408E-3
3.431154900E1,9.039005111E-3
3.432148500E1,-9.820949149E-3
3.433142200E1,-8.372817670E-3
3.434135800E1,-6.051388546E-4
3.435129400E1,-7.591558853E-3
3.436123100E1,2.100064047E-4
3.437116700E1,4.553302203E-3
3.438110400E1,6.770972942E-3
3.439104000E1,2.113380167E-3
3.440097700E1,-3.595633346E-3
3.441091300E1,-8.379774943E-3
3.442085000E1,-1.102291056E-2
3.443078600E1,2.101749689E-3
3.444072300E1,-1.439434659E-2
3.445065900E1,-1.271588735E-2
3.446059600E1,-4.184822550E-3
3.447053200E1,-8.548042278E-3
3.448046800E1,-9.658994980E-3
3.449040500E1,-1.236168997E-2
3.450034100E1,-4.792499004E-3
3.451027800E1,1.297965844E-2
3.452021400E1,1.323028701E-2
3.453015100E1,5.772846378E-4
3.454008700E1,-1.712694918E-2
3.455002400E1,-1.373183878E-2
3.455996000E1,-9.179728862E-3
3.456989700E1,-6.811654489E-3
3.457983300E1,-4.911131244E-3
3.458977000E1,1.463337437E-2
3.459970600E1,-3.745095944E-3
3.460964200E1,3.310334904E-3
3.461957900E1,2.920065236E-3
3.462951500E1,9.615245929E-3
3.463945200E1,-2.933776500E-3
3.464938800E1,-1.709687941E-2
3.465932500E1,-8.190542143E-3
3.466926100E1,6.708818867E-3
3.467919800E1,-1.825381955E-3
3.468913400E1,-2.759830970E-3
3.469907100E1,-1.002792916E-2
3.470900700E1,-8.697470615E-3
3.471894300E1,9.591530445E-3
3.472888000E1,8.186821395E-3
3.473881600E1,-1.081617495E-2
3.474875300E1,7.420116663E-4
3.475868900E1,-3.962096167E-3
3.476862600E1,9.329783034E-3
3.477856200E1,2.546928367E-3
3.478849900E1,-7.727970283E-3
3.479843500E1,-1.027829963E-2
3.480837200E1,1.202919125E-2
3.481830800E1,5.412516282E-3
3.482824500E1,-3.711067890E-3
3.483818100E1,9.101396729E-3
3.484811700E1,-9.606655547E-4
3.485805400E1,5.102769169E-4
3.486799000E1,5.896928406E-3
3.487792700E1,-3.520492057E-3
3.488786300E1,-3.494117917E-3
3.489780000E1,-5.829500416E-3
3.490773600E1,-2.241525552E-3
3.491767300E1,-7.940692445E-3
3.492760900E1,2.258249503E-3
3.493754600E1,-1.736586275E-2
3.494748200E1,-1.101605836E-2
3.495741800E1,-1.307138207E-3
3.496735500E1,1.434437117E-2
3.497729100E1,-5.725255525E-3
3.498722800E1,5.522797967E-3
3.499716400E1,1.569702172E-2
3.500710100E1,-5.897684433E-3
3.501703700E1,-1.191785890E-3
3.502697400E1,-1.356961052E-2
3.503691000E1,-1.300029272E-2
3.504684700E1,5.517227123E-3
3.505678300E1,1.165300972E-2
3.506672000E1,-9.420640999E-5
3.507665600E1,-6.427629464E-3
3.508659200E1,3.487761354E-3
3.509652900E1,1.037554157E-3
3.510646500E1,-1.286092113E-2
3.511640200E1,1.930887653E-3
3.512633800E1,-4.820997328E-3
3.513627500E1,9.186256730E-3
3.514621100E1,8.030463194E-3
3.515614800E1,-1.103175219E-2
3.516608400E1,-1.469758867E-2
3.517602100E1,-1.105459516E-3
3.518595700E1,8.000439112E-3
3.519589300E1,-5.171588156E-3
3.520583000E1,-1.385656948E-2
3.521576600E1,-2.224182619E-3
3.522570363E1,4.986060115E-3
3.523563962E1,-8.212501178E-3
3.524557663E1,5.515210291E-3
3.525551263E1,-3.665895865E-3
3.526544963E1,-1.903990917E-2
3.527538563E1,3.691082289E-3
3.528532263E1,-1.363127581E-2
3.529525863E1,-7.788395318E-3
3.530519463E1,-1.213133709E-2
3.531513163E1,-6.282714447E-3
3.532506763E1,1.731786533E-2
3.533500463E1,-1.020960855E-2
3.534494063E1,-5.316617377E-3
3.535487763E1,-4.427863439E-3
3.536481362E1,-9.906857538E-3
3.537475063E1,5.567990548E-3
3.538468663E1,3.752377555E-3
3.539462363E1,-6.099806232E-3
3.540455963E1,-1.006794376E-2
3.541449563E1,7.176276350E-3
3.542443263E1,-1.096156505E-3
3.543436863E1,2.884554821E-3
3.544430563E1,5.123321218E-3
3.545424163E1,-5.421807873E-4
3.546417863E1,-3.265644817E-3
3.547411463E1,-7.822345714E-3
3.548405163E1,-1.953439861E-2
3.549398762E1,1.136282794E-2
3.550392463E1,-4.261891593E-3
3.551386063E1,-8.697185107E-4
3.552379763E1,1.428063652E-3
3.553373363E1,1.048344097E-2
3.554366963E1,-1.160268027E-3
3.555360663E1,-1.544379846E-3
3.556354263E1,7.682252366E-3
3.557347963E1,-7.827779513E-3
3.558341563E1,-1.443658358E-2
3.559335263E1,-5.326173920E-4
3.560328863E1,-3.180784816E-3
3.561322563E1,-1.148566743E-3
3.562316163E1,-3.238165188E-3
3.563309862E1,5.782782077E-3
3.564303463E1,4.863697991E-3
3.565297063E1,-5.761930814E-3
3.566290763E1,-1.197538088E-2
3.567284363E1,-3.637294758E-3
3.568278063E1,2.062493402E-3
3.569271663E1,-1.132900317E-3
3.570265363E1,-2.166759307E-2
3.571258963E1,-1.696086541E-2
3.572252663E1,-6.979828177E-3
3.573246263E1,6.384563351E-3
3.574239963E1,-7.469249263E-3
3.575233563E1,-4.993748290E-3
3.576227163E1,1.081947314E-3
3.577220863E1,-8.132940216E-3
3.578214463E1,6.620532763E-3
3.579208163E1,5.341458907E-3
3.580201763E1,4.047198279E-3
3.581195463E1,-1.224907169E-2
3.582189063E1,4.758925480E-4
3.583182763E1,-5.173931611E-3
3.584176363E1,-7.424641403E-3
3.585170063E1,-6.401787512E-4
3.586163663E1,-4.768769816E-3
3.587157263E1,-1.851491372E-2
3.588150963E1,-4.559731856E-4
3.589144563E1,-1.659864639E-3
3.590138263E1,-1.098099791E-2
3.591131863E1,-7.556176346E-3
3.592125563E1,2.978050886E-3
3.593119163E1,-1.785704714E-2
3.594112863E1,7.860644977E-4
3.595106463E1,6.276207136E-3
3.596100163E1,-1.639339998E-3
3.597093763E1,-1.823600382E-2
3.598087363E1,1.003153114E-2
3.599081063E1,-1.229055037E-3
3.600074663E1,3.257013322E-4
3.601068363E1,5.621618195E-4
3.602061963E1,-1.413552964E-3
3.603055663E1,6.627444355E-3
3.604049263E1,-5.900957503E-3
3.605042963E1,-2.022899073E-2
3.606036563E1,-2.280786408E-3
3.607030263E1,-2.168055288E-2
3.608023863E1,-6.006885753E-3
3.609017563E1,-1.136287590E-3
3.610011163E1,7.049565359E-3
3.611004763E1,2.018545638E-3
3.611998463E1,-9.646946518E-3
3.612992063E1,-5.114525270E-3
3.613985763E1,1.309334110E-2
3.614979363E1,1.631119179E-2
3.615973063E1,1.808488984E-3
3.616966663E1,-5.105706481E-3
3.617960363E1,-1.847149129E-3
3.618953963E1,8.015874848E-3
3.619947663E1,-4.475787766E-3
3.620941263E1,-1.201481761E-2
3.621934800E1,-2.033296153E-3
3.622928500E1,-1.539462246E-4
3.623922100E1,1.252558103E-3
3.624915800E1,2.460101782E-4
3.625909400E1,7.316036224E-3
3.626903100E1,8.445142703E-3
3.627896700E1,2.836390666E-3
3.628890400E1,-1.912386468E-2
3.629884000E1,2.190131724E-3
3.630877600E1,5.786897969E-3
3.631871300E1,-3.198678209E-4
3.632864900E1,1.100253210E-2
3.633858600E1,3.463536522E-3
3.634852200E1,-2.143011389E-3
3.635845900E1,8.412697508E-3
3.636839500E1,-2.954511275E-4
3.637833200E1,-1.829895275E-3
3.638826800E1,9.952009006E-3
3.639820500E1,4.162737890E-4
3.640814100E1,3.699346050E-4
3.641807800E1,-7.545601109E-3
3.642801400E1,-1.702671739E-2
3.643795000E1,4.075867909E-3
3.644788700E1,-7.238715934E-3
3.645782300E1,-1.448582582E-2
3.646776000E1,5.657795558E-3
3.647769600E1,2.525597450E-3
3.648763300E1,-9.151705625E-3
3.649756900E1,-2.294103213E-2
3.650750600E1,-1.029243801E-2
3.651744200E1,-3.720076256E-3
3.652737800E1,-9.981037234E-4
3.653731500E1,-6.728799900E-3
3.654725100E1,4.839811202E-3
3.655718800E1,1.072142721E-2
3.656712400E1,1.524615800E-4
3.657706100E1,2.045639260E-3
3.658699700E1,1.601867569E-2
3.659693400E1,6.285092162E-3
3.660687000E1,7.602033592E-3
3.661680700E1,3.829138249E-3
3.662674300E1,4.507234823E-3
3.663668000E1,1.588744452E-2
3.664661600E1,-4.031344559E-3
3.665655200E1,2.471387365E-3
3.666648900E1,-1.604088825E-2
3.667642500E1,-8.389100796E-3
3.668636200E1,1.058559137E-2
3.669629800E1,7.129537454E-4
3.670623500E1,-4.556550148E-3
3.671617100E1,-1.014891399E-2
3.672610800E1,-1.329171703E-2
3.673604400E1,-1.237792742E-2
3.674598100E1,-3.218123856E-2
3.675591700E1,-1.119496945E-2
3.676585300E1,-1.447528484E-3
3.677579000E1,6.488764845E-3
3.678572600E1,-3.488282121E-3
3.679566300E1,1.161928545E-4
3.680559900E1,5.441352648E-3
3.681553600E1,2.902886756E-3
3.682547200E1,1.093677148E-2
3.683540900E1,-8.175990342E-3
3.684534500E1,-5.933439243E-4
3.685528100E1,-1.738590317E-2
3.686521800E1,-1.517687763E-2
3.687515400E1,2.323217550E-3
3.688509100E1,-4.046131619E-3
3.689502700E1,-9.044475455E-3
3.690496400E1,7.635010974E-3
3.691490000E1,-1.968797938E-2
3.692483700E1,3.058004708E-3
3.693477300E1,3.602202327E-3
3.694471000E1,-3.425248680E-3
3.695464600E1,3.546902742E-3
3.696458300E1,8.031904441E-3
3.697451900E1,8.713762877E-3
3.698445500E1,8.172840611E-3
3.699439200E1,1.984242125E-2
3.700432800E1,3.785992193E-3
3.701426500E1,-1.492062569E-2
3.702420100E1,-1.435339095E-2
3.703413800E1,3.407140584E-3
3.704407400E1,-5.725109344E-4
3.705401100E1,-3.896157390E-3
3.706394700E1,8.030899451E-3
3.707388300E1,-5.555236309E-3
3.708382000E1,-9.626227731E-3
3.709375600E1,-1.420266527E-2
3.710369300E1,-1.444738723E-2
3.711362900E1,-9.410858334E-3
3.712356600E1,-1.697610700E-2
3.713350200E1,1.094043970E-2
3.714343900E1,4.692696626E-3
3.715337500E1,-1.581977899E-3
3.716331200E1,2.128751948E-6
3.717324800E1,-7.463909111E-3
3.718318400E1,-6.679598778E-3
3.719312100E1,8.914831721E-3
3.720305700E1,9.891410382E-4
3.721299400E1,-6.506363594E-3
3.722293025E1,-1.249802831E-2
3.723286725E1,-4.432831288E-3
3.724280325E1,-8.143154571E-3
3.725274025E1,-1.294428050E-2
3.726267625E1,-7.724085082E-3
3.727261325E1,1.034390036E-2
3.728254925E1,-1.423455086E-2
3.729248525E1,-1.650362228E-2
3.730242225E1,7.837523350E-3
3.731235825E1,-1.253565378E-2
3.732229525E1,3.669630317E-4
3.733223125E1,6.556601683E-4
3.734216825E1,-2.618702939E-3
3.735210425E1,-1.256852152E-3
3.736204125E1,-1.300808824E-2
3.737197725E1,3.577285423E-4
3.738191425E1,3.588484211E-3
3.739185025E1,-1.447780189E-2
3.740178625E1,-3.249110444E-4
3.741172325E1,-1.476994111E-2
3.742165925E1,2.455371476E-3
3.743159625E1,1.129119041E-2
3.744153225E1,-3.766684961E-3
3.745146925E1,-9.416068294E-3
3.746140525E1,-3.956198702E-3
3.747134225E1,-1.421654555E-3
3.748127825E1,6.621464663E-3
3.749121525E1,-8.704252015E-3
3.750115125E1,-1.684642215E-2
3.751108725E1,-1.086547428E-2
3.752102425E1,1.167430638E-2
3.753096025E1,-1.765208167E-3
3.754089725E1,1.154171619E-2
3.755083325E1,5.298255750E-3
3.756077025E1,4.095504046E-3
3.757070625E1,-9.247497178E-3
3.758064325E1,-5.413996358E-4
3.759057925E1,-1.182896295E-4
3.760051625E1,1.570479898E-3
3.761045225E1,-4.041862695E-3
3.762038825E1,-3.938398955E-3
3.763032525E1,-5.276997923E-3
3.764026125E1,8.222692693E-4
3.765019825E1,-7.336565433E-3
3.766013425E1,-3.011021416E-3
3.767007125E1,7.672620448E-3
3.768000725E1,-2.038501545E-3
3.768994425E1,1.570676328E-3
3.769988025E1,-1.229536519E-2
3.770981725E1,6.784439811E-3
3.771975325E1,-4.733841838E-3
3.772968925E1,2.928833775E-3
3.773962625E1,7.278949802E-3
3.774956225E1,2.387045848E-3
3.775949925E1,-9.035304920E-3
3.776943525E1,-1.128496861E-2
3.777937225E1,-1.033684716E-2
3.778930825E1,-2.164815108E-3
3.779924525E1,4.789933995E-3
3.780918125E1,7.555637306E-3
3.781911725E1,-1.355821531E-2
3.782905425E1,-5.788741212E-3
3.783899025E1,8.189450358E-3
3.784892725E1,1.245465842E-2
3.785886325E1,-1.591487162E-2
3.786880025E1,-5.820297904E-3
3.787873625E1,5.186060015E-3
3.788867325E1,8.932560661E-3
3.789860925E1,-9.576992348E-3
3.790854625E1,-2.936960491E-3
3.791848225E1,-5.331084668E-4
3.792841825E1,-9.633625830E-3
3.793835525E1,-1.645605199E-2
3.794829125E1,1.803050616E-3
3.795822825E1,7.884216565E-3
3.796816425E1,6.302818819E-4
3.797810125E1,-1.547566350E-2
3.798803725E1,-1.797720514E-2
3.799797425E1,-2.389154043E-3
3.800791025E1,-8.481783732E-3
3.801784725E1,-9.828367804E-3
3.802778325E1,1.300294224E-2
3.803771925E1,-1.892523751E-2
3.804765625E1,7.995039574E-4
3.805759225E1,9.939398663E-3
3.806752925E1,-3.079493225E-3
3.807746525E1,-7.663244347E-3
3.808740225E1,6.512880041E-3
3.809733825E1,-7.959739293E-3
3.810727525E1,-8.405662577E-3
3.811721125E1,-1.439075603E-2
3.812714825E1,4.130235594E-3
3.813708425E1,1.544450652E-3
3.814702025E1,8.170654757E-3
3.815695725E1,-2.952380239E-3
3.816689325E1,3.736037328E-3
3.817683025E1,3.555230456E-3
3.818676625E1,-7.306443136E-3
3.819670325E1,3.660016672E-3
3.820663925E1,3.183692435E-3
3.821657625E1,2.310524981E-3
3.822651204E1,-4.647974563E-3
3.823644904E1,-1.793933528E-2
3.824638504E1,8.731918938E-3
3.825632104E1,1.052105272E-2
3.826625804E1,-8.529625833E-5
3.827619404E1,-1.200214560E-2
3.828613104E1,-1.811783524E-2
3.829606704E1,-5.075246142E-3
3.830600404E1,5.483783791E-3
3.831594004E1,-1.046354673E-4
3.832587704E1,1.114935889E-2
3.833581304E1,-9.713520266E-3
3.834574904E1,-9.535052280E-3
3.835568604E1,1.003227118E-2
3.836562204E1,4.900679346E-3
3.837555904E1,-2.202511376E-2
3.838549504E1,-2.736140611E-3
3.839543204E1,2.379828191E-3
3.840536804E1,-7.709942129E-3
3.841530504E1,-1.522089620E-3
3.842524104E1,-1.009556043E-3
3.843517804E1,-1.894056589E-2
3.844511404E1,2.255558870E-3
3.845505004E1,3.302395481E-3
3.846498704E1,-2.157930468E-2
3.847492304E1,-1.062828061E-2
3.848486004E1,1.091711479E-2
3.849479604E1,-8.858348988E-3
3.850473304E1,-4.201128515E-3
3.851466904E1,-5.690567375E-3
3.852460604E1,-2.045145444E-2
3.853454204E1,-7.528854317E-3
3.854447804E1,4.731512088E-3
3.855441504E1,-3.961892885E-3
3.856435104E1,-1.280080445E-2
3.857428804E1,-9.893221648E-3
3.858422404E1,-2.419376839E-4
3.859416104E1,7.026176497E-3
3.860409704E1,-7.052039006E-4
3.861403404E1,-2.876245379E-3
3.862397004E1,8.450487424E-3
3.863390704E1,2.823259556E-3
3.864384304E1,-1.389929070E-2
3.865377904E1,1.978058238E-2
3.866371604E1,1.459163987E-2
3.867365204E1,-7.068973090E-3
3.868358904E1,-2.667873454E-2
3.869352504E1,3.304793753E-3
3.870346204E1,9.622712550E-4
3.871339804E1,-4.065749485E-3
3.872333504E1,1.605083537E-3
3.873327104E1,4.047168586E-3
3.874320704E1,1.517141185E-2
3.875314404E1,-2.617428428E-4
3.876308004E1,5.072267717E-3
3.877301704E1,3.894289022E-3
3.878295304E1,-1.733098731E-3
3.879289004E1,-1.629366841E-2
3.880282604E1,-8.862558526E-3
3.881276304E1,6.490788530E-3
3.882269904E1,1.158679914E-2
3.883263604E1,9.520685489E-3
3.884257204E1,3.039172562E-3
3.885250804E1,5.907460246E-3
3.886244504E1,1.038434208E-2
3.887238104E1,-4.051448931E-3
3.888231804E1,-5.160250040E-3
3.889225404E1,5.566076499E-3
3.890219104E1,-7.564693638E-3
3.891212704E1,-8.214486034E-3
3.892206404E1,-1.994960345E-3
3.893200004E1,-1.531777040E-2
3.894193704E1,-2.274359039E-3
3.895187304E1,5.374966194E-3
3.896180904E1,-1.476742864E-2
3.897174604E1,-3.660265636E-3
3.898168204E1,-1.409809147E-2
3.899161904E1,4.412219853E-3
3.900155504E1,2.034239473E-3
3.901149204E1,4.674319010E-3
3.902142804E1,4.654219206E-3
3.903136504E1,-1.534010174E-3
3.904130104E1,7.822992106E-3
3.905123704E1,-1.407694328E-3
3.906117404E1,5.178623088E-4
3.907111004E1,-1.182019441E-2
3.908104704E1,9.925618877E-3
3.909098304E1,5.644452029E-3
3.910092004E1,5.520280923E-3
3.911085604E1,-5.247725300E-3
3.912079304E1,-8.043516646E-3
3.913072904E1,7.813136349E-4
3.914066604E1,7.808577348E-3
3.915060204E1,6.987651112E-5
3.916053804E1,-1.588773003E-2
3.917047504E1,-2.711559464E-3
3.918041104E1,8.120969413E-3
3.919034804E1,-6.990017407E-3
3.920028404E1,5.555124390E-3
3.921022104E1,2.209413832E-3
3.922015704E1,-1.310004256E-2
3.923009400E1,-2.311509871E-2
3.924003000E1,-1.020077605E-2
3.924996600E1,-2.002102856E-2
3.925990300E1,-2.176488983E-3
3.926983900E1,-5.215369184E-3
3.927977600E1,4.481098226E-3
3.928971200E1,5.795776143E-3
3.929964900E1,2.008121149E-3
3.930958500E1,1.833597293E-2
3.931952200E1,-1.654258164E-2
3.932945800E1,-1.089382643E-2
3.933939500E1,-8.089851262E-4
3.934933100E1,-1.303237018E-3
3.935926700E1,-1.490484963E-3
3.936920400E1,7.636127884E-3
3.937914000E1,-4.919232836E-3
3.938907700E1,-6.214541851E-3
3.939901300E1,-1.588409608E-2
3.940895000E1,-1.141530670E-2
3.941888600E1,-5.684187971E-3
3.942882300E1,9.029437148E-3
3.943875900E1,4.938905519E-3
3.944869500E1,1.964240308E-2
3.945863200E1,9.006432008E-3
3.946856800E1,-1.591645905E-2
3.947850500E1,-4.008277750E-3
3.948844100E1,1.815665070E-2
3.949837800E1,-1.140133962E-2
3.950831400E1,-7.101452546E-3
3.951825100E1,-7.241614417E-3
3.952818700E1,-3.989740249E-3
3.953812300E1,-1.341360407E-3
3.954806000E1,-6.028844789E-4
3.955799600E1,8.135123786E-3
3.956793300E1,-4.661505385E-3
3.957786900E1,-2.502051443E-2
3.958780600E1,-2.484322046E-3
3.959774200E1,-2.829709766E-3
3.960767900E1,-4.911585774E-3
3.961761500E1,1.575245835E-2
3.962755200E1,-2.483680223E-3
3.963748800E1,3.299181797E-3
3.964742400E1,-4.968063938E-3
3.965736100E1,9.401603288E-3
3.966729700E1,1.441599499E-2
3.967723400E1,-1.768989671E-2
3.968717000E1,1.423271219E-2
3.969710700E1,-9.946246301E-3
3.970704300E1,-2.011133835E-2
3.971698000E1,-1.641057618E-3
3.972691600E1,-1.599355322E-2
3.973685200E1,8.992583700E-3
3.974678900E1,8.711074528E-3
3.975672500E1,-6.090811570E-3
3.976666200E1,2.247555493E-3
3.977659800E1,-1.150620349E-2
3.978653500E1,8.757210430E-3
3.979647100E1,1.218806878E-2
3.980640800E1,-1.583754676E-2
3.981634400E1,-7.853475285E-3
3.982628100E1,3.584843406E-3
3.983621700E1,-3.361646505E-3
3.984615300E1,-5.099838709E-3
3.985609000E1,-3.230986360E-3
3.986602600E1,-1.488760491E-3
3.987596300E1,6.226462405E-4
3.988589900E1,-6.953447184E-3
3.989583600E1,-2.190610465E-2
3.990577200E1,8.034464882E-3
3.991570900E1,-1.627746066E-2
3.992564500E1,-1.603059624E-2
3.993558100E1,3.648237730E-3
3.994551800E1,-4.528458389E-3
3.995545400E1,6.125335267E-3
3.996539100E1,-1.108705863E-2
3.997532700E1,1.269341896E-2
3.998526400E1,-5.286412854E-3
3.999520000E1,4.237961406E-3
4.000513700E1,9.043461329E-3
4.001507300E1,4.472640320E-4
4.002500900E1,2.389658822E-3
4.003494600E1,2.431174510E-2
4.004488200E1,5.175509902E-3
4.005481900E1,1.643693890E-2
4.006475500E1,-7.469153332E-3
4.007469200E1,-2.086064305E-2
4.008462800E1,-1.420799400E-2
