Time (s),Linear Acceleration x (m/s^2)
1.170463770E-1,-1.082590222E-2
1.339153140E-1,-1.714310795E-2
1.508166020E-1,-1.238881052E-2
1.676973690E-1,-1.305170357E-2
1.845809550E-1,-1.945364475E-2
2.014648370E-1,-1.245906949E-2
2.183451570E-1,-1.594628394E-2
2.352321810E-1,-1.679601520E-2
2.521191760E-1,-1.842263341E-2
2.689953350E-1,-1.000079513E-2
2.858866320E-1,-1.347410679E-2
3.027543190E-1,-1.512961835E-2
3.196510980E-1,-1.711765677E-2
3.365311240E-1,-1.866848022E-2
3.534215570E-1,-1.309285313E-2
3.703018470E-1,-1.809175313E-2
3.871856970E-1,-1.562082022E-2
4.040694970E-1,-1.152157784E-2
4.209530730E-1,-1.520575583E-2
4.378368520E-1,-1.753664762E-2
4.547201420E-1,-1.610582322E-2
4.716067300E-1,-1.146576554E-2
4.884857480E-1,-1.405498385E-2
5.053717250E-1,-1.435692608E-2
5.222587800E-1,-1.736128330E-2
5.391355500E-1,-1.782950014E-2
5.560226260E-1,-1.497810334E-2
5.729065780E-1,-1.336030662E-2
5.897889430E-1,-1.426187903E-2
6.066653160E-1,-1.543433964E-2
6.235577130E-1,-1.736366749E-2
6.404413390E-1,-1.166383922E-2
6.573237550E-1,-1.597215235E-2
6.742085410E-1,-1.420628279E-2
6.910924430E-1,-1.198522002E-2
7.079759880E-1,-1.656172425E-2
7.248597470E-1,-1.380455494E-2
7.417434560E-1,-1.491117477E-2
7.586242650E-1,-1.280378550E-2
7.755134350E-1,-1.362305880E-2
7.923953830E-1,-1.677191257E-2
8.092782060E-1,-2.129177749E-2
8.261620370E-1,-1.315112412E-2
8.430426940E-1,-1.668547094E-2
8.599328510E-1,-2.354688942E-2
8.768130280E-1,-2.225493640E-2
8.936969300E-1,-1.748769730E-2
9.105782980E-1,-1.823902875E-2
9.274655260E-1,-1.419509202E-2
9.443480030E-1,-1.755785197E-2
9.612316810E-1,-1.386720687E-2
9.781144630E-1,-1.327981800E-2
9.949991780E-1,-1.309733093E-2
1.011880374E0,-1.709420979E-2
1.028769372E0,-1.581753045E-2
1.045650140E0,-1.861323416E-2
1.062522048E0,-1.778915524E-2
1.079416967E0,-1.643787324E-2
1.096289719E0,-1.609408855E-2
1.113183406E0,-2.007401735E-2
1.130066107E0,-1.780647039E-2
1.146952124E0,-1.566488296E-2
1.163838578E0,-1.707480103E-2
1.180711128E0,-1.600193232E-2
1.197603533E0,-1.586212218E-2
1.214485950E0,-1.573731750E-2
1.231372140E0,-1.389510930E-2
1.248245777E0,-1.649467647E-2
1.265125304E0,-1.679150760E-2
1.282018768E0,-1.392703503E-2
1.298907654E0,-1.394920796E-2
1.315789419E0,-1.929657161E-2
1.332673392E0,-1.722878218E-2
1.349557028E0,-1.695669442E-2
1.366424756E0,-1.853963733E-2
1.383314497E0,-1.804738492E-2
1.400208102E0,-1.506410539E-2
1.417096255E0,-1.223464310E-2
1.433975884E0,-1.399275661E-2
1.450858973E0,-1.670593023E-2
1.467742812E0,-1.641269773E-2
1.484613824E0,-1.914300025E-2
1.501510738E0,-2.065955848E-2
1.518390640E0,-1.494304091E-2
1.535280828E0,-1.414119452E-2
1.552151638E0,-1.579460502E-2
1.569045030E0,-1.891108602E-2
1.585928687E0,-1.625983417E-2
1.602802987E0,-1.865313947E-2
1.619694751E0,-1.199904084E-2
1.636578978E0,-1.505580544E-2
1.653464202E0,-1.422441006E-2
1.670347178E0,-1.500197500E-2
1.687230936E0,-1.381453872E-2
1.704114705E0,-1.658400893E-2
1.720995108E0,-1.110233366E-2
1.737883902E0,-1.547407359E-2
1.754765656E0,-1.618074626E-2
1.771649345E0,-1.518422365E-2
1.788533113E0,-1.210062206E-2
1.805405235E0,-1.450115442E-2
1.822300805E0,-1.383174211E-2
1.839184615E0,-1.673142612E-2
1.856067721E0,-1.531545818E-2
1.872951553E0,-1.114283502E-2
1.889835241E0,-1.568792760E-2
1.906711349E0,-1.929020882E-2
1.923602758E0,-2.101290971E-2
1.940485144E0,-1.903531700E-2
1.957370663E0,-1.688309014E-2
1.974253791E0,-1.646706462E-2
1.991137500E0,-1.503006369E-2
2.008021583E0,-1.403681189E-2
2.024904732E0,-1.390159130E-2
2.041773904E0,-1.082804054E-2
2.058669585E0,-1.279131323E-2
2.075555826E0,-1.667183638E-2
2.092436604E0,-1.543049514E-2
2.109323608E0,-1.234006137E-2
2.126209686E0,-1.762701571E-2
2.143091259E0,-1.968740672E-2
2.159971294E0,-1.306071132E-2
2.176858136E0,-1.785641909E-2
2.193744946E0,-1.973038167E-2
2.210625817E0,-2.002045512E-2
2.227509168E0,-1.997186244E-2
2.244392937E0,-1.781469584E-2
2.261276218E0,-1.564607769E-2
2.278158807E0,-1.127640158E-2
2.295045587E0,-1.765807718E-2
2.311927699E0,-1.797232032E-2
2.328811315E0,-2.268324047E-2
2.345695094E0,-1.514969021E-2
2.362565741E0,-2.109050751E-2
2.379462603E0,-1.979963481E-2
2.396342760E0,-1.884604245E-2
2.413228534E0,-1.470025629E-2
2.430118051E0,-1.689510792E-2
2.446984821E0,-1.665237546E-2
2.463881254E0,-1.630021632E-2
2.480770762E0,-1.260584593E-2
2.497653747E0,-1.323759556E-2
2.514530782E0,-1.620715857E-2
2.531415700E0,-1.374793798E-2
2.548295238E0,-1.625638455E-2
2.565187521E0,-1.140687615E-2
2.582053794E0,-1.474964619E-2
2.598950615E0,-1.536404341E-2
2.615834210E0,-1.831979305E-2
2.632717451E0,-1.699422300E-2
2.649601851E0,-8.736476302E-3
2.666485446E0,-1.560685784E-2
2.683369074E0,-1.655966789E-2
2.700251500E0,-1.457174867E-2
2.717136276E0,-1.645041257E-2
2.734019963E0,-1.556886733E-2
2.750903500E0,-1.842152327E-2
2.767786118E0,-1.479159296E-2
2.784670976E0,-1.241476834E-2
2.801554665E0,-1.504259557E-2
2.818437233E0,-1.543907076E-2
2.835325315E0,-1.669222862E-2
2.852206013E0,-1.871468872E-2
2.869089405E0,-1.609366387E-2
2.885972747E0,-1.862429082E-2
2.902857096E0,-1.593741030E-2
2.919737671E0,-1.437302679E-2
2.936624522E0,-1.631975919E-2
2.953510927E0,-1.549849659E-2
2.970391979E0,-1.538001746E-2
2.987275422E0,-1.655194908E-2
3.004149598E0,-1.667726785E-2
3.021041456E0,-1.730613410E-2
3.037926486E0,-1.681595296E-2
3.054809939E0,-1.965764165E-2
3.071693689E0,-1.311077178E-2
3.088576176E0,-1.920486987E-2
3.105461196E0,-1.724094898E-2
3.122343216E0,-1.768822968E-2
3.139228602E0,-1.590842754E-2
3.156112229E0,-1.857232302E-2
3.172995175E0,-1.432185620E-2
3.189880510E0,-1.362726092E-2
3.206763251E0,-1.809979975E-2
3.223647204E0,-2.184044570E-2
3.240527311E0,-1.250571012E-2
3.257417702E0,-1.520845294E-2
3.274297656E0,-1.961775869E-2
3.291178923E0,-2.034139633E-2
3.308068460E0,-1.525117457E-2
3.324947194E0,-1.967884600E-2
3.341832825E0,-1.633897424E-2
3.358713583E0,-1.568681002E-2
3.375603659E0,-1.568381488E-2
3.392483258E0,-1.153858006E-2
3.409366508E0,-1.494112611E-2
3.426251171E0,-1.660206169E-2
3.443138258E0,-1.388330758E-2
3.460015954E0,-1.537097245E-2
3.476902327E0,-1.963939518E-2
3.493785943E0,-1.622539014E-2
3.510669479E0,-8.620493114E-3
3.527553247E0,-1.149137318E-2
3.544436905E0,-1.772022992E-2
3.561320756E0,-1.281850785E-2
3.578207271E0,-1.088646799E-2
3.595084906E0,-1.341889054E-2
3.611972246E0,-1.202451438E-2
3.628855629E0,-1.586385816E-2
3.645739144E0,-1.237844676E-2
3.662609750E0,-1.481948793E-2
3.679510832E0,-1.403465867E-2
3.696388843E0,-1.212575287E-2
3.713264466E0,-1.475319266E-2
3.730156229E0,-1.519332081E-2
3.747038249E0,-2.108468115E-2
3.763942302E0,-1.498128474E-2
3.780794170E0,-1.623162627E-2
3.797692303E0,-1.664665341E-2
3.814572522E0,-1.559744775E-2
3.831451388E0,-1.136521250E-2
3.848343254E0,-1.591395587E-2
3.865226810E0,-1.946166158E-2
3.882110824E0,-1.598514616E-2
3.898991031E0,-1.712351292E-2
3.915891779E0,-1.946824789E-2
3.932758855E0,-1.873774827E-2
3.949648809E0,-1.687197387E-2
3.966529282E0,-1.657180488E-2
3.983412828E0,-1.829998940E-2
4.000296251E0,-1.275757700E-2
4.017180040E0,-1.660946757E-2
4.034063748E0,-1.544465870E-2
4.050946093E0,-1.525203884E-2
4.067830941E0,-1.526414603E-2
4.084718158E0,-1.747015119E-2
4.101598510E0,-1.434247941E-2
4.118479135E0,-1.203450561E-2
4.135368926E0,-2.450841665E-2
4.152245402E0,-1.459084451E-2
4.169133353E0,-1.369675994E-2
4.186013764E0,-1.182658225E-2
4.202903851E0,-2.029189467E-2
4.219784324E0,-1.982102543E-2
4.236663556E0,-1.557012647E-2
4.253554681E0,-1.715511084E-2
4.270435296E0,-1.798611879E-2
4.287318994E0,-1.759894192E-2
4.304202813E0,-1.387914270E-2
4.321070621E0,-1.732756197E-2
4.337967055E0,-1.205442101E-2
4.354853632E0,-1.708208025E-2
4.371737758E0,-1.882273704E-2
4.388621008E0,-1.615235209E-2
4.405504665E0,-1.479513943E-2
4.422382922E0,-1.462276280E-2
4.439269253E0,-1.745121926E-2
4.456159004E0,-1.782165468E-2
4.473039437E0,-2.187609673E-2
4.489922992E0,-1.682113111E-2
4.506806822E0,-1.983173937E-2
4.523690510E0,-9.238168597E-3
4.540561117E0,-2.044896781E-2
4.557456288E0,-1.519931108E-2
4.574328694E0,-1.735764742E-2
4.591215445E0,-1.582644135E-2
4.608103192E0,-1.747588068E-2
4.624995200E0,-1.591172069E-2
4.641880689E0,-1.853337884E-2
4.658758089E0,-1.902344078E-2
4.675643405E0,-1.906681061E-2
4.692527623E0,-2.014161646E-2
4.709408349E0,-2.367002517E-2
4.726296686E0,-1.374058425E-2
4.743178076E0,-1.402062178E-2
4.760061997E0,-1.707238704E-2
4.776945562E0,-1.468943805E-2
4.793829199E0,-1.840802282E-2
4.810712948E0,-1.602394879E-2
4.827596677E0,-1.461662352E-2
4.844480089E0,-1.432570815E-2
4.861364073E0,-1.546486467E-2
4.878244240E0,-1.037599146E-2
4.895133349E0,-1.257915795E-2
4.912014902E0,-1.393052936E-2
4.928898579E0,-1.829276234E-2
4.945779836E0,-1.481485367E-2
4.962661500E0,-1.547117531E-2
4.979539643E0,-1.841730624E-2
4.996433340E0,-1.776187122E-2
5.013316876E0,-1.703856885E-2
5.030197186E0,-1.339565217E-2
5.047078951E0,-1.289632916E-2
5.063967583E0,-1.384343952E-2
5.080836022E0,-1.702488214E-2
5.097738061E0,-1.738192141E-2
5.114602501E0,-1.856678724E-2
5.131506220E0,-1.180034876E-2
5.148383652E0,-1.659510285E-2
5.165272609E0,-1.324530691E-2
5.182166754E0,-2.083404362E-2
5.199033483E0,-2.205552161E-2
5.215923560E0,-1.686511189E-2
5.232804623E0,-1.555771381E-2
5.249688300E0,-1.415580511E-2
5.266568906E0,-1.507107168E-2
5.283465219E0,-1.405625790E-2
5.300339567E0,-1.638901979E-2
5.317222970E0,-2.073333412E-2
5.334106556E0,-2.050715685E-2
5.350990183E0,-1.160331815E-2
5.367874003E0,-1.599960774E-2
5.384757345E0,-1.784548163E-2
5.401641644E0,-1.697040349E-2
5.418521963E0,-1.792053878E-2
5.435411491E0,-1.574392617E-2
5.452288424E0,-1.367375255E-2
5.469175997E0,-1.437714696E-2
5.486059593E0,-1.437967271E-2
5.502943536E0,-1.739668846E-2
5.519825565E0,-1.381172985E-2
5.536709243E0,-1.899111271E-2
5.553595363E0,-1.592876017E-2
5.570478002E0,-1.333344728E-2
5.587360072E0,-1.036263257E-2
5.604247086E0,-1.568864286E-2
5.621129096E0,-1.356280595E-2
5.638012936E0,-1.035568863E-2
5.654898119E0,-1.272212714E-2
5.671778552E0,-1.416177303E-2
5.688663622E0,-1.496629417E-2
5.705544330E0,-9.143136442E-3
5.722441660E0,-1.529183984E-2
5.739314432E0,-1.327499002E-2
5.756198343E0,-1.191979647E-2
5.773081615E0,-9.952791035E-3
5.789966004E0,-8.555009961E-3
5.806849549E0,-1.341547072E-2
5.823733155E0,-1.711767912E-2
5.840615226E0,-1.576758176E-2
5.857497561E0,-1.447448879E-2
5.874387473E0,-1.203177869E-2
5.891267602E0,-8.722178638E-3
5.908151360E0,-1.335191727E-2
5.925035404E0,-1.512670517E-2
5.941925308E0,-1.477466524E-2
5.958799016E0,-1.711008698E-2
5.975689570E0,-1.337075979E-2
5.992569555E0,-1.387426257E-2
6.009453233E0,-1.275454462E-2
6.026336828E0,-1.252654940E-2
6.043217964E0,-1.761890203E-2
6.060107480E0,-1.421736926E-2
6.076984637E0,-1.375120133E-2
6.093874661E0,-9.339004755E-3
6.110752226E0,-1.480323076E-2
6.127642170E0,-1.675231755E-2
6.144522745E0,-1.475328207E-2
6.161406433E0,-1.556725800E-2
6.178284749E0,-1.091456413E-2
6.195179108E0,-1.088539511E-2
6.212057110E0,-9.096249938E-3
6.228941020E0,-1.168370247E-2
6.245824546E0,-1.093708724E-2
6.262701225E0,-1.081167907E-2
6.279589358E0,-1.598714292E-2
6.296478244E0,-1.266489923E-2
6.313359115E0,-8.120425045E-3
6.330248875E0,-8.670136333E-3
6.347125177E0,-1.451770961E-2
6.364007003E0,-1.652350277E-2
6.380884099E0,-1.383332908E-2
6.397762640E0,-1.935416460E-2
6.414660833E0,-1.133789867E-2
6.431540167E0,-1.601302624E-2
6.448433194E0,-1.145429164E-2
6.465312141E0,-8.921563625E-3
6.482195717E0,-1.217076927E-2
6.499076251E0,-1.297557354E-2
6.515966337E0,-1.086250693E-2
6.532846374E0,-1.343570650E-2
6.549730824E0,-1.206906140E-2
6.566614430E0,-1.575092226E-2
6.583497844E0,-1.331050694E-2
6.600394675E0,-1.307269931E-2
6.617254649E0,-1.595132798E-2
6.634135560E0,-1.118773222E-2
6.651044893E0,-1.447495073E-2
6.667914837E0,-1.319085807E-2
6.684799471E0,-1.188966632E-2
6.701663251E0,-1.458279788E-2
6.718563836E0,-1.382922381E-2
6.735453525E0,-1.596216112E-2
6.752334599E0,-1.625689864E-2
6.769217992E0,-1.494891196E-2
6.786101802E0,-1.875734329E-2
6.802985531E0,-1.639447361E-2
6.819869085E0,-1.195390522E-2
6.836753312E0,-1.121104509E-2
6.853636014E0,-1.178830117E-2
6.870520393E0,-8.280813694E-3
6.887403419E0,-7.788337767E-3
6.904287310E0,-1.349747926E-2
6.921170968E0,-1.374990493E-2
6.938054259E0,-1.030851901E-2
6.954938475E0,-1.092338562E-2
6.971821899E0,-1.401317120E-2
6.988704163E0,-1.440824568E-2
7.005589304E0,-1.144602895E-2
7.022462027E0,-1.091529429E-2
7.039356334E0,-1.084132493E-2
7.056239737E0,-1.068137586E-2
7.073124372E0,-7.663682103E-3
7.090007245E0,-6.746411324E-3
7.106891279E0,-1.281014830E-2
7.123774773E0,-1.182758063E-2
7.140658350E0,-1.070836931E-2
7.157542423E0,-1.052665710E-2
7.174425318E0,-6.349489093E-3
7.191309830E0,-1.265952736E-2
7.208194728E0,-1.653753966E-2
7.225075099E0,-1.241406798E-2
7.241958615E0,-1.366685331E-2
7.258842281E0,-1.383300871E-2
7.275728889E0,-1.390496641E-2
7.292613258E0,-1.212192327E-2
7.309493630E0,-1.650255173E-2
7.326378884E0,-7.419794798E-3
7.343262349E0,-1.413909346E-2
7.360136057E0,-1.117882878E-2
7.377027882E0,-1.070062071E-2
7.393915781E0,-1.466265321E-2
7.410794597E0,-1.409901679E-2
7.427680532E0,-1.502259821E-2
7.444564270E0,-1.104692370E-2
7.461447715E0,-7.150121033E-3
7.478328433E0,-1.279853284E-2
7.495218274E0,-9.973004460E-3
7.512099125E0,-1.425539702E-2
7.528982415E0,-1.492963731E-2
7.545863671E0,-1.387338340E-2
7.562740707E0,-1.652855426E-2
7.579633671E0,-1.990409195E-2
7.596508611E0,-8.669264615E-3
7.613403488E0,-9.904205799E-3
7.630279557E0,-7.260642946E-3
7.647171139E0,-1.266880333E-2
7.664035772E0,-1.459674537E-2
7.680922035E0,-1.297728717E-2
7.697817624E0,-8.633457124E-3
7.714702390E0,-6.800733507E-3
7.731586169E0,-1.058171690E-2
7.748469756E0,-1.584414393E-2
7.765350565E0,-1.356368512E-2
7.782223755E0,-1.268530637E-2
7.799124034E0,-1.130034029E-2
7.816003895E0,-1.273836195E-2
7.832889080E0,-1.396760345E-2
7.849771617E0,-1.429054886E-2
7.866656261E0,-1.438441873E-2
7.883538820E0,-9.146116674E-3
7.900419751E0,-1.176102459E-2
7.917306277E0,-7.000669837E-3
7.934190026E0,-5.862377584E-3
7.951072270E0,-1.298350096E-2
7.967945205E0,-1.104703546E-2
7.984841049E0,-1.255372912E-2
8.001724604E0,-1.267862320E-2
8.018603806E0,-1.280657947E-2
8.035481562E0,-1.388126612E-2
8.052375495E0,-7.053419948E-3
8.069259355E0,-1.001188159E-2
8.086142687E0,-1.336411387E-2
8.103026456E0,-1.085104793E-2
8.119910103E0,-1.047721505E-2
8.136791980E0,-9.233050048E-3
8.153677651E0,-1.196210831E-2
8.170560994E0,-9.356953204E-3
8.187444661E0,-7.794857025E-3
8.204328023E0,-1.448475569E-2
8.221212322E0,-6.783112884E-3
8.238095652E0,-4.483498633E-3
8.254979361E0,-9.289011359E-3
8.271863059E0,-1.363075525E-2
8.288746513E0,-1.367127150E-2
8.305630088E0,-1.079962403E-2
8.322491845E0,-9.276434779E-3
8.339395837E0,-1.017629355E-2
8.356279422E0,-1.501465589E-2
8.373166386E0,-1.098133624E-2
8.390048233E0,-1.224166155E-2
8.406932001E0,-9.483262897E-3
8.423814194E0,-1.024455577E-2
8.440688330E0,-7.474891841E-3
8.457581569E0,-1.001025736E-2
8.474463243E0,-8.113063872E-3
8.491353533E0,-1.191747189E-2
8.508232775E0,-8.465044200E-3
8.525115994E0,-1.485143602E-2
8.542004189E0,-9.925529361E-3
8.558863971E0,-1.214390248E-2
8.575768411E0,-6.586767733E-3
8.592650247E0,-1.154891402E-2
8.609537658E0,-1.522246003E-2
8.626428121E0,-1.280038059E-2
8.643303121E0,-1.243315637E-2
8.660186881E0,-8.272469044E-3
8.677069002E0,-7.557190955E-3
8.693954123E0,-4.585653543E-3
8.710837547E0,-5.227819085E-3
8.727721337E0,-1.117926836E-2
8.744604973E0,-9.109795094E-3
8.761488499E0,-9.938448668E-3
8.778367720E0,-1.184806228E-2
8.795256311E0,-9.162262082E-3
8.812139419E0,-5.902238190E-3
8.829026271E0,-1.124889404E-2
8.845897457E0,-6.171748042E-3
8.862778357E0,-9.373977780E-3
8.879661404E0,-1.760162413E-3
8.896554715E0,-4.140585661E-3
8.913444313E0,-1.074307412E-2
8.930325092E0,-8.887544274E-3
8.947208778E0,-7.417522371E-3
8.964092293E0,-1.353248209E-2
8.980974588E0,-1.044914126E-2
8.997846191E0,-8.987307549E-3
9.014743367E0,-1.393113285E-2
9.031626791E0,-1.645532995E-2
9.048523936E0,-5.754962564E-3
9.065393992E0,-1.098500192E-2
9.082277640E0,-8.997656405E-3
9.099160270E0,-4.649177194E-3
9.116044863E0,-4.037007689E-3
9.132916334E0,-8.037336171E-3
9.149812188E0,-5.712583661E-3
9.166683984E0,-9.325422347E-3
9.183579930E0,-8.332885802E-3
9.200463129E0,-1.152910292E-2
9.217346674E0,-1.017000526E-2
9.234235468E0,-8.839309216E-3
9.251114081E0,-1.161015779E-2
9.267997626E0,-1.315409690E-2
9.284881242E0,-6.312079728E-3
9.301761980E0,-1.108738035E-2
9.318651222E0,-1.586633176E-2
9.335529335E0,-1.360953599E-2
9.352416960E0,-1.143857092E-2
9.369298338E0,-8.797608316E-3
9.386183369E0,-1.068061590E-2
9.403066976E0,-1.156248897E-2
9.419949117E0,-4.683494568E-3
9.436834086E0,-1.523470134E-2
9.453717692E0,-1.213286072E-2
9.470601492E0,-6.901994348E-3
9.487483511E0,-1.021389663E-2
9.504368511E0,-7.400691509E-3
9.521252139E0,-8.744835854E-3
9.538131950E0,-9.383067489E-3
9.555023409E0,-8.349493146E-3
9.571903090E0,-9.327568114E-3
9.588786950E0,-8.377052844E-3
9.605670750E0,-1.108769327E-2
9.622540950E0,-8.576199412E-3
9.639424678E0,-1.101339608E-2
9.656317866E0,-8.570380509E-3
9.673208167E0,-1.208362728E-2
9.690088426E0,-7.391937077E-3
9.706972530E0,-1.177813113E-2
9.723855842E0,-1.531358808E-2
9.740725380E0,-1.063995063E-2
9.757609963E0,-8.136466146E-3
9.774506955E0,-4.874609411E-3
9.791390329E0,-8.328206837E-3
9.808268015E0,-3.678552806E-3
9.825157694E0,-7.037572563E-3
9.842041301E0,-1.041186601E-2
9.858924825E0,-6.769709289E-3
9.875808646E0,-4.454165697E-3
9.892680524E0,-1.399865001E-2
9.909572826E0,-1.256115735E-2
9.926462455E0,-9.411744773E-3
9.943343305E0,-1.239751279E-2
9.960226749E0,-1.507501304E-2
9.977110141E0,-1.250482351E-2
9.993986260E0,-1.033420116E-2
1.001087806E1,-1.064800471E-2
1.002776141E1,-4.855744541E-3
1.004464472E1,-6.953939795E-3
1.006152862E1,-8.398234844E-3
1.007840881E1,-5.797855556E-3
1.009529880E1,-8.361853659E-3
1.011218598E1,-8.789330721E-3
1.012904992E1,-4.742302001E-3
1.014594652E1,-9.929351509E-3
1.016281875E1,-9.532220662E-3
1.017971253E1,-1.061119139E-2
1.019660845E1,-1.071783155E-2
1.021348446E1,-6.136886775E-3
1.023036490E1,-1.131815463E-2
1.024723542E1,-9.167104959E-3
1.026414547E1,-8.789218962E-3
1.028101571E1,-1.057046652E-2
1.029790213E1,-8.994482458E-3
1.031477970E1,-5.893506110E-3
1.033166683E1,-7.201924920E-3
1.034854998E1,-9.719789028E-3
1.036543371E1,-7.123626769E-3
1.038231759E1,-1.138940454E-2
1.039918828E1,-7.981903851E-3
1.041608472E1,-1.633301377E-3
1.043296820E1,-7.657654583E-3
1.044985076E1,-1.024919003E-2
1.046673723E1,-4.815272987E-3
1.048361903E1,-8.053086698E-3
1.050049216E1,-9.137362242E-3
1.051738631E1,-1.147537678E-2
1.053427005E1,-1.188471913E-2
1.055115348E1,-6.742894650E-3
1.056802418E1,-1.234053820E-2
1.058492106E1,-1.094827056E-2
1.060180456E1,-1.299723983E-2
1.061868811E1,-1.329504699E-2
1.063557143E1,-1.204112917E-2
1.065245970E1,-5.932234228E-3
1.066933939E1,-6.811566651E-3
1.068622263E1,-9.266078472E-3
1.070310637E1,-1.017390192E-2
1.071998975E1,-4.386015236E-3
1.073687340E1,-7.638007402E-3
1.075375713E1,-1.103957742E-2
1.077063948E1,-7.393755019E-3
1.078752474E1,-1.274440438E-2
1.080440761E1,-7.598638535E-3
1.082129213E1,-9.703800082E-3
1.083817198E1,-7.110901177E-3
1.085506220E1,-5.533739924E-3
1.087194390E1,-6.390847266E-3
1.088882473E1,-5.081497133E-3
1.090571988E1,-1.043260098E-2
1.092258042E1,-1.128772646E-2
1.093947717E1,-1.021477580E-2
1.095635781E1,-8.223630488E-3
1.097323351E1,-5.012795329E-3
1.099013152E1,-6.315700710E-3
1.100701184E1,-8.244059980E-3
1.102389513E1,-9.074628353E-3
1.104077003E1,-9.835571051E-3
1.105766758E1,-5.841828883E-3
1.107454607E1,-7.465071976E-3
1.109142975E1,-4.798367620E-3
1.110831010E1,-8.733056486E-3
1.112519784E1,-1.072027534E-2
1.114208287E1,-1.097419113E-2
1.115895483E1,-6.858117878E-3
1.117584751E1,-9.219646454E-3
1.119272808E1,-3.679163754E-3
1.120961812E1,-6.369568408E-3
1.122649875E1,-9.101450443E-3
1.124338236E1,-7.664777339E-3
1.126026313E1,-6.418928504E-3
1.127715133E1,-7.299423218E-3
1.129403316E1,-3.386072814E-3
1.131091670E1,-8.637912571E-3
1.132780044E1,-6.560012698E-3
1.134468382E1,-7.370814681E-3
1.136156761E1,-1.606658101E-3
1.137845060E1,-9.456701577E-3
1.139533515E1,-1.064214110E-2
1.141220592E1,-9.628571570E-3
1.142909819E1,-6.608635187E-3
1.144598886E1,-6.144680083E-3
1.146285569E1,-6.120577455E-3
1.147975003E1,-3.243558109E-3
1.149663921E1,-5.726039410E-3
1.151352544E1,-6.103791296E-3
1.153041343E1,-7.396087050E-3
1.154728726E1,-6.387032568E-3
1.156417317E1,-1.024309546E-2
1.158105237E1,-9.689971805E-3
1.159793071E1,-7.918246090E-3
1.161482198E1,-1.346692443E-2
1.163170568E1,-7.270082831E-3
1.164858898E1,-7.628537714E-3
1.166545966E1,-1.354053617E-2
1.168234240E1,-1.031045616E-2
1.169923980E1,-1.100782305E-2
1.171612347E1,-6.992995739E-3
1.173300716E1,-9.361788630E-3
1.174989099E1,-1.088358462E-2
1.176676397E1,-4.174090922E-3
1.178365781E1,-6.020441651E-3
1.180053012E1,-7.442638278E-3
1.181742183E1,-8.352898061E-3
1.183430268E1,-6.645470858E-3
1.185119247E1,-7.579594851E-3
1.186807611E1,-7.658004761E-3
1.188495954E1,-1.276089251E-2
1.190184416E1,-3.262139857E-3
1.191872554E1,-8.736856282E-3
1.193561052E1,-1.069729030E-2
1.195249419E1,-6.983235478E-3
1.196937745E1,-7.547877729E-3
1.198626156E1,-9.465567768E-3
1.200314515E1,-1.374205202E-2
1.202002843E1,-1.032632589E-2
1.203691240E1,-6.885178387E-3
1.205379629E1,-9.331472218E-3
1.207067946E1,-3.851063550E-3
1.208756292E1,-7.028631866E-3
1.210444630E1,-6.430089474E-3
1.212133061E1,-1.043332368E-2
1.213821465E1,-9.886220098E-3
1.215508688E1,-1.266235113E-2
1.217197924E1,-7.292181253E-3
1.218886475E1,-7.505163550E-3
1.220574822E1,-9.228572249E-3
1.222261899E1,-1.236408204E-2
1.223951448E1,-8.132763207E-3
1.225639902E1,-3.334648907E-3
1.227328264E1,-7.281906903E-3
1.229016642E1,-7.279537618E-3
1.230704999E1,-1.023175567E-2
1.232393372E1,-3.643527627E-3
1.234080410E1,-4.444353282E-3
1.235770097E1,-7.486864924E-3
1.237458426E1,-9.027101099E-3
1.239146512E1,-8.077070117E-3
1.240835232E1,-3.288373351E-3
1.242523465E1,-2.510927618E-3
1.244212181E1,-1.274630427E-3
1.245900253E1,7.343962789E-4
1.247587331E1,-7.162094116E-4
1.249276828E1,-6.784975529E-3
1.250965472E1,-7.052138448E-3
1.252653712E1,-4.121325910E-3
1.254342113E1,-2.450883389E-3
1.256030332E1,-1.214712858E-2
1.257718736E1,-7.694527507E-3
1.259407124E1,-8.796706796E-3
1.261095502E1,-6.081692874E-3
1.262783856E1,-1.192445308E-2
1.264472229E1,-7.605455816E-3
1.266160582E1,-5.805827677E-3
1.267848641E1,-8.441656828E-3
1.269536296E1,-4.875279963E-3
1.271225607E1,-8.466415107E-3
1.272913820E1,-6.111949682E-3
1.274602627E1,-5.688168108E-3
1.276290794E1,-8.487701416E-3
1.277979113E1,-8.906826377E-3
1.279667143E1,-6.036579609E-3
1.281355973E1,-8.560515940E-3
1.283044213E1,-8.868262172E-3
1.284732545E1,-1.004131138E-2
1.286420925E1,-9.115837514E-3
1.288109139E1,-1.003743708E-2
1.289797631E1,-3.299489617E-3
1.291485977E1,-8.043639362E-3
1.293173013E1,-4.052944481E-3
1.294863055E1,-6.462909281E-3
1.296550946E1,-1.154877245E-2
1.298238121E1,-8.724264801E-3
1.299927776E1,-7.794946432E-3
1.301616165E1,-2.942323685E-3
1.303304507E1,-3.240346909E-3
1.304993366E1,-5.028396845E-3
1.306681061E1,-8.214980364E-3
1.308369648E1,-1.094949245E-2
1.310056709E1,-4.373878241E-3
1.311746292E1,-8.076369762E-3
1.313433345E1,-8.673533797E-3
1.315123076E1,-8.792094886E-3
1.316811401E1,-7.154107094E-3
1.318499751E1,-1.260440052E-2
1.320188771E1,-3.484286368E-3
1.321876537E1,-6.112977862E-3
1.323564876E1,-4.827529192E-3
1.325253161E1,-9.311676025E-3
1.326941588E1,-9.971447289E-3
1.328629908E1,-8.866861463E-3
1.330318296E1,-4.639372230E-3
1.332006332E1,-9.181767702E-3
1.333695311E1,-8.714824915E-3
1.335383388E1,-7.544808090E-3
1.337071714E1,-8.430071175E-3
1.338759956E1,-5.589321256E-3
1.340448423E1,-6.397433579E-3
1.342136798E1,-9.410023689E-3
1.343824875E1,3.744661808E-5
1.345513781E1,-9.021528065E-3
1.347201908E1,-2.711325884E-3
1.348890263E1,-7.596068084E-3
1.350578597E1,-9.504996240E-3
1.352265689E1,-8.534215391E-3
1.353955330E1,-8.439175785E-3
1.355643662E1,-1.018381864E-2
1.357332038E1,-4.543192685E-3
1.359020435E1,-6.508745253E-3
1.360708757E1,-6.211467087E-3
1.362397135E1,-4.962399602E-3
1.364084207E1,-8.925944567E-3
1.365773853E1,-3.660239279E-3
1.367461920E1,-6.911598146E-3
1.369150433E1,-7.885120809E-3
1.370839212E1,-5.075238645E-3
1.372527262E1,-5.734726787E-3
1.374215638E1,-2.914614975E-3
1.375903695E1,-8.271716535E-3
1.377592639E1,-8.922569454E-3
1.379280751E1,-9.259060025E-4
1.380969087E1,-9.550973773E-4
1.382657440E1,-6.678953767E-3
1.384345815E1,-9.766481817E-3
1.386034163E1,-7.800042629E-3
1.387722491E1,-7.462009788E-3
1.389410832E1,-7.457047701E-3
1.391099294E1,-7.384672761E-3
1.392787578E1,-7.369861007E-3
1.394475977E1,-1.022063941E-2
1.396164304E1,-7.774226367E-3
1.397852331E1,-9.601742029E-3
1.399541354E1,-1.665391028E-3
1.401228081E1,-3.398634493E-3
1.402916224E1,-4.790596664E-3
1.404606447E1,-4.993148148E-3
1.406293910E1,-3.731511533E-3
1.407982923E1,1.190893352E-3
1.409672242E1,-6.778985262E-3
1.411359570E1,-3.873571754E-3
1.413048069E1,-4.705935717E-4
1.414736098E1,-7.581830025E-3
1.416424634E1,-5.127660930E-3
1.418111346E1,-6.523855031E-3
1.419801506E1,-7.808320224E-3
1.421489852E1,1.533553004E-4
1.423178093E1,-6.764285266E-3
1.424866430E1,-9.580403566E-3
1.426554789E1,-8.754350245E-3
1.428243765E1,-4.035875201E-3
1.429931229E1,-7.405973971E-3
1.431619875E1,-3.795981407E-3
1.433308223E1,-6.074033678E-3
1.434996432E1,-6.525412202E-3
1.436683797E1,-4.737891257E-3
1.438373316E1,-3.390364349E-3
1.440061665E1,-2.193316817E-3
1.441749880E1,-3.125965595E-3
1.443438370E1,-6.131447852E-3
1.445126759E1,-7.670052350E-3
1.446815097E1,-3.898844123E-3
1.448503446E1,-4.519373178E-4
1.450190746E1,-5.764111876E-3
1.451879838E1,-7.691264153E-3
1.453568829E1,-5.105651915E-3
1.455256915E1,-3.569647670E-3
1.456945249E1,-1.555010676E-3
1.458633633E1,-5.949705839E-3
1.460320354E1,-4.624418914E-3
1.462010359E1,-3.418788314E-3
1.463698675E1,-6.137028337E-3
1.465387028E1,-1.891799271E-3
1.467075258E1,-4.264488816E-3
1.468763809E1,-4.553541541E-3
1.470452124E1,-3.416210413E-3
1.472140481E1,-6.118394434E-3
1.473828217E1,-9.395644069E-3
1.475517672E1,-2.235174179E-7
1.477205584E1,-5.555868149E-3
1.478893904E1,-3.372713923E-3
1.480582283E1,-7.107548416E-3
1.482269334E1,-8.797235787E-3
1.483958993E1,-3.806345165E-3
1.485647080E1,-3.006614745E-3
1.487335997E1,2.326071262E-5
1.489024064E1,-2.492502332E-3
1.490712426E1,-6.865911186E-3
1.492400749E1,-6.439305842E-3
1.494087886E1,-5.173541605E-3
1.495777178E1,-7.254675031E-3
1.497466174E1,-3.408581018E-3
1.499154216E1,-3.976397216E-3
1.500842604E1,1.127563417E-3
1.502530648E1,-9.129762650E-3
1.504219612E1,-6.513409317E-3
1.505907530E1,-2.075806260E-3
1.507595994E1,-3.724515438E-3
1.509284122E1,-9.957328439E-4
1.510972970E1,-5.295716226E-3
1.512661090E1,-2.971984446E-3
1.514349457E1,-6.628170609E-3
1.516037817E1,-7.181055844E-3
1.517726100E1,-3.255598247E-3
1.519414490E1,-4.433989525E-3
1.521102886E1,-3.961309791E-3
1.522790910E1,-6.854377687E-3
1.524479886E1,-3.273755312E-3
1.526167605E1,-2.775065601E-3
1.527854752E1,-2.641759813E-3
1.529544763E1,-5.495615304E-3
1.531232694E1,-1.826778054E-3
1.532921044E1,-5.283556879E-3
1.534610076E1,-2.790048718E-3
1.536296798E1,-2.430304885E-3
1.537984411E1,-5.346402526E-3
1.539674684E1,-6.959274411E-3
1.541363490E1,-1.690387726E-4
1.543051545E1,-3.158189356E-3
1.544739894E1,-4.752032459E-3
1.546428274E1,-1.635164022E-3
1.548116615E1,-3.378421068E-3
1.549804838E1,-6.617717445E-3
1.551493340E1,-4.274487495E-3
1.553181674E1,-2.717494965E-3
1.554870037E1,-5.407124758E-3
1.556558372E1,2.313405275E-5
1.558245487E1,-2.079643309E-3
1.559934001E1,-3.046289086E-3
1.561623465E1,-5.511239171E-3
1.563311829E1,-2.953134477E-3
1.565000186E1,-1.282222569E-3
1.566688870E1,-5.108356476E-3
1.568376924E1,-2.668097615E-3
1.570065135E1,-1.235239208E-3
1.571753284E1,-4.471704364E-3
1.573443586E1,-6.735257804E-3
1.575130327E1,-2.919100225E-3
1.576818728E1,-1.177392900E-3
1.578507056E1,-6.114207208E-3
1.580195042E1,-6.906725466E-3
1.581883650E1,-4.046864808E-3
1.583572134E1,-3.625378013E-3
1.585260490E1,-5.347169936E-3
1.586948842E1,-3.722347319E-3
1.588637195E1,-4.142045975E-3
1.590325612E1,-3.659665585E-3
1.592013929E1,-6.540738046E-3
1.593702279E1,-2.814300358E-3
1.595390629E1,-5.187369883E-3
1.597078684E1,-8.512631059E-3
1.598767694E1,-1.383073628E-3
1.600455706E1,-2.046100795E-3
1.602144096E1,-9.125739336E-3
1.603832096E1,-8.454449475E-3
1.605521102E1,-6.069518626E-3
1.607209135E1,-3.925614059E-3
1.608897489E1,-5.388274789E-3
1.610585862E1,-6.741851568E-3
1.612273046E1,-1.058064401E-3
1.613962445E1,-4.315875471E-3
1.615650691E1,-3.715351224E-3
1.617339544E1,-4.267491400E-3
1.619027690E1,-1.432470977E-3
1.620715538E1,-2.096101642E-3
1.622404407E1,-6.308518350E-3
1.624093109E1,-6.881661713E-3
1.625781063E1,-2.869546413E-3
1.627469433E1,6.901845336E-4
1.629157684E1,-1.607567072E-3
1.630846234E1,-8.944019675E-3
1.632534531E1,-8.906111121E-3
1.634222873E1,-1.416355371E-4
1.635910926E1,-5.795121193E-3
1.637599583E1,-3.728300333E-3
1.639288259E1,-3.471732140E-3
1.640976311E1,-2.242706716E-3
1.642664812E1,-6.021723151E-3
1.644353032E1,-3.636829555E-3
1.646041245E1,-2.202771604E-3
1.647729423E1,-3.068163991E-3
1.649418408E1,-4.394844174E-3
1.651105141E1,-3.453508019E-3
1.652794692E1,-3.961697221E-3
1.654483168E1,-3.341816366E-3
1.656171516E1,-2.124495804E-3
1.657859534E1,-4.913419485E-3
1.659548246E1,-2.357490361E-3
1.661236909E1,-2.033792436E-3
1.662923977E1,-4.950046539E-3
1.664613187E1,-5.331590772E-3
1.666301565E1,5.388557911E-4
1.667990280E1,-1.518085599E-3
1.669677068E1,-3.070592880E-3
1.671366703E1,-3.242753446E-3
1.673055451E1,8.724331856E-4
1.674743045E1,-7.233105600E-3
1.676431890E1,-7.941424847E-4
1.678119092E1,-4.536993802E-3
1.679808545E1,-3.369100392E-3
1.681496878E1,8.111298084E-4
1.683185219E1,-4.294522107E-3
1.684873460E1,7.014721632E-4
1.686561984E1,-1.414567232E-3
1.688249039E1,7.987767458E-5
1.689938655E1,-7.276661694E-3
1.691627010E1,-3.641024232E-3
1.693315371E1,-6.019905210E-3
1.695003477E1,-3.459058702E-3
1.696692089E1,-7.539615035E-4
1.698380242E1,-7.279172540E-3
1.700067018E1,-7.009059191E-4
1.701755866E1,-4.407845438E-3
1.703445501E1,-2.051293850E-3
1.705133910E1,-1.600623131E-3
1.706822224E1,-2.637207508E-3
1.708509292E1,-1.721732318E-3
1.710198978E1,-5.533576012E-3
1.711887302E1,-2.121165395E-3
1.713575678E1,-1.501798630E-3
1.715263760E1,-7.056690753E-3
1.716952245E1,-5.051054060E-3
1.718640749E1,-5.819149315E-3
1.720328806E1,-3.666661680E-3
1.722017758E1,-8.526362479E-3
1.723705519E1,6.907954812E-4
1.725394438E1,-7.954984903E-4
1.727082517E1,-2.166360617E-3
1.728770865E1,-2.376578748E-3
1.730459243E1,-5.275815725E-3
1.732147605E1,-5.714997649E-3
1.733835613E1,7.010996342E-6
1.735524592E1,2.056673169E-3
1.737211141E1,-1.702524722E-3
1.738899692E1,-6.970487535E-3
1.740589687E1,-3.007888794E-3
1.742276420E1,-9.685009718E-5
1.743966078E1,2.212345600E-3
1.745654677E1,-1.466721296E-3
1.747342589E1,-7.864743471E-3
1.749031009E1,-1.852288842E-3
1.750719519E1,8.862838149E-4
1.752407882E1,2.469129860E-3
1.754096239E1,-1.363068819E-3
1.755784577E1,2.159059048E-3
1.757472624E1,-2.077877522E-3
1.759160336E1,-4.931755364E-3
1.760849664E1,-5.414620042E-3
1.762536741E1,-1.472972333E-3
1.764226628E1,-4.925392568E-3
1.765914458E1,-2.065822482E-4
1.767603046E1,-3.505006433E-3
1.769291177E1,-5.143336952E-3
1.770979483E1,-5.337171257E-3
1.772668115E1,-2.450823784E-3
1.774356404E1,-7.950820029E-3
1.776044980E1,-1.734159887E-3
1.777733226E1,9.765774012E-4
1.779421589E1,1.277007163E-3
1.781109792E1,-5.550459027E-4
1.782798290E1,-3.735542297E-3
1.784486664E1,-4.264995456E-3
1.786175014E1,-5.521036685E-3
1.787863029E1,-5.797110498E-3
1.789550752E1,-2.899728715E-3
1.791240088E1,-5.428887904E-3
1.792928402E1,-1.744419336E-3
1.794616338E1,-2.324916422E-3
1.796305605E1,-7.061213255E-3
1.797992188E1,-8.807584643E-3
1.799681699E1,2.153813839E-4
1.801370022E1,-6.538994610E-3
1.803057527E1,-4.631765187E-3
1.804745621E1,-1.473635435E-3
1.806435293E1,-2.126373351E-3
1.808123641E1,-6.276905537E-3
1.809811993E1,-4.676572978E-3
1.811500344E1,2.543516457E-3
1.813188715E1,-4.481352866E-3
1.814877068E1,-2.997964621E-4
1.816565460E1,-1.900047064E-3
1.818252424E1,-1.016184688E-3
1.819941171E1,-1.971252263E-3
1.821630678E1,-6.921134889E-3
1.823318784E1,-1.760222018E-3
1.825007207E1,-1.039892435E-3
1.826695542E1,-8.248761296E-4
1.828382760E1,-1.945920289E-3
1.830072144E1,-2.714961767E-3
1.831760481E1,-2.940282226E-3
1.833448960E1,1.792453229E-3
1.835135872E1,-3.343991935E-3
1.836825697E1,2.799451351E-3
1.838514058E1,-7.196307182E-3
1.840202154E1,1.275338233E-3
1.841891027E1,-1.519396901E-3
1.843579101E1,-1.945115626E-3
1.845267498E1,2.090908587E-3
1.846955821E1,1.545064151E-3
1.848643141E1,-3.253072500E-4
1.850332514E1,-2.443991601E-3
1.852020938E1,-4.926063120E-3
1.853709233E1,-2.394214272E-3
1.855397621E1,3.122866154E-3
1.857084647E1,-2.966679633E-3
1.858774305E1,-4.977494478E-3
1.860462689E1,-1.182988286E-3
1.862151040E1,-3.537394106E-3
1.863838931E1,-2.655275166E-3
1.865528069E1,-4.806220531E-3
1.867216099E1,7.562264800E-4
1.868904266E1,-3.116287291E-3
1.870592827E1,-1.916348934E-3
1.872279866E1,5.132824183E-3
1.873969538E1,-2.553723752E-3
1.875657593E1,-1.830980182E-3
1.877346532E1,-2.335660160E-3
1.879034601E1,2.327755094E-3
1.880722942E1,3.061749041E-3
1.882411284E1,-6.738297641E-3
1.884099362E1,-2.326428890E-3
1.885788350E1,-1.672849059E-3
1.887476368E1,-4.439130425E-4
1.889164423E1,-4.217334092E-3
1.890852342E1,-4.750333726E-3
1.892541210E1,-4.736661911E-3
1.894229803E1,-2.429090440E-3
1.895918007E1,-3.175213933E-3
1.897606199E1,-4.331320524E-3
1.899295160E1,-3.386400640E-3
1.900983210E1,-3.195077181E-3
1.902671578E1,-1.444555819E-3
1.904359945E1,1.189559698E-3
1.906048285E1,-3.726243973E-3
1.907736643E1,-1.537531614E-3
1.909425041E1,-4.079222679E-3
1.911113362E1,-4.470497370E-3
1.912801703E1,-2.747073770E-3
1.914488902E1,-1.404836774E-3
1.916177289E1,1.766011119E-3
1.917866447E1,-2.525128424E-3
1.919555442E1,-3.068022430E-3
1.921243351E1,-4.251785576E-3
1.922930729E1,-2.167768776E-3
1.924618892E1,-1.159936190E-3
1.926308560E1,-5.074582994E-3
1.927996451E1,-1.561939716E-3
1.929685566E1,1.871109009E-3
1.931373370E1,3.560706973E-3
1.933061957E1,-2.602115273E-4
1.934750318E1,2.888515592E-4
1.936438701E1,-7.727146149E-4
1.938127034E1,-2.027243376E-3
1.939814224E1,-1.092806458E-3
1.941503769E1,-4.959426820E-3
1.943192107E1,8.200481534E-4
1.944880457E1,-5.938783288E-4
1.946568798E1,-3.783755004E-3
1.948255913E1,-3.174133599E-3
1.949945521E1,-4.263013601E-3
1.951633552E1,3.735847771E-3
1.953322512E1,-1.897461712E-3
1.955009543E1,-2.077937126E-3
1.956698980E1,-9.328797460E-4
1.958387310E1,-2.557128668E-3
1.960076693E1,-2.807289362E-3
1.961764719E1,2.063065767E-5
1.963452387E1,-1.924417913E-3
1.965140724E1,-1.670345664E-3
1.966829071E1,-5.745425820E-3
1.968517438E1,-4.158094525E-4
1.970205779E1,4.153326154E-4
1.971894152E1,-6.394334137E-3
1.973582504E1,-4.562586546E-4
1.975270857E1,-2.536855638E-3
1.976959222E1,1.803785563E-5
1.978647528E1,2.233408391E-3
1.980335638E1,4.914589226E-3
1.982024614E1,1.980587840E-4
1.983712650E1,5.453899503E-4
1.985400951E1,-5.394592881E-4
1.987089373E1,-3.577396274E-3
1.988777693E1,-1.725368202E-3
1.990465949E1,-3.679022193E-3
1.992154415E1,-2.897106111E-3
1.993842421E1,3.108732402E-3
1.995531455E1,2.856664360E-3
1.997219473E1,-1.298487186E-3
1.998907816E1,-2.469532192E-3
2.000596168E1,-8.836090565E-4
2.002284543E1,-2.485498786E-3
2.003972892E1,-2.824224532E-3
2.005660920E1,-7.946364582E-3
2.007349974E1,-4.577651620E-3
2.009037941E1,-1.215882599E-3
2.010726177E1,3.258138895E-4
2.012414675E1,-6.403863430E-3
2.014103025E1,1.435779035E-3
2.015790109E1,8.594468236E-4
2.017479569E1,4.854887724E-3
2.019168228E1,2.616047859E-3
2.020856424E1,-2.339363098E-3
2.022544802E1,-3.781996667E-3
2.024233169E1,-2.755083144E-3
2.025921496E1,3.163643181E-3
2.027609852E1,1.081325114E-3
2.029297888E1,-3.265216947E-4
2.030986900E1,2.355493605E-3
2.032675081E1,1.004651189E-3
2.034363010E1,3.690518439E-3
2.036049784E1,1.104936004E-3
2.037738677E1,2.533689141E-3
2.039428344E1,-3.012686968E-3
2.041115551E1,2.260580659E-4
2.042803752E1,-1.041956246E-3
2.044493273E1,-3.525055945E-3
2.046182714E1,5.924306810E-3
2.047870349E1,-2.508439124E-3
2.049558425E1,2.522468567E-4
2.051246562E1,-3.827512264E-4
2.052935469E1,-2.293236554E-3
2.054622232E1,3.338955343E-3
2.056311903E1,-2.820797265E-3
2.057999216E1,3.392100334E-4
2.059687636E1,1.874774694E-3
2.061375860E1,1.007378101E-3
2.063065014E1,8.005425334E-4
2.064754003E1,-5.023255944E-3
2.066440748E1,-2.896085382E-3
2.068130378E1,-2.500437200E-3
2.069818460E1,-6.350204349E-4
2.071506008E1,-2.160325646E-3
2.073195431E1,3.480911255E-3
2.074882516E1,-2.719365060E-3
2.076572052E1,-6.916150451E-4
2.078259186E1,-3.325127065E-3
2.079948871E1,-5.514673889E-3
2.081637287E1,-2.832509577E-3
2.083325460E1,-3.540746868E-3
2.085012601E1,-2.579994500E-3
2.086702247E1,4.749670625E-4
2.088390639E1,-8.158087730E-4
2.090077398E1,-3.302082419E-3
2.091766003E1,-8.213520050E-4
2.093455676E1,-3.320522606E-3
2.095144052E1,-2.582132816E-3
2.096832374E1,-6.494522095E-4
2.098520739E1,-2.789795399E-4
2.100208955E1,-3.070861101E-3
2.101897598E1,-3.467440605E-3
2.103585728E1,5.078837276E-4
2.105274217E1,1.192957163E-3
2.106962377E1,-1.707427204E-3
2.108650852E1,8.682087064E-4
2.110339234E1,-1.694008708E-3
2.112027574E1,1.956880093E-3
2.113715806E1,-1.512616873E-3
2.115404270E1,9.089484811E-4
2.117091452E1,4.214219749E-3
2.118780988E1,-1.152455807E-3
2.120469393E1,-1.952573657E-4
2.122157689E1,5.765423179E-3
2.123845722E1,2.036117017E-3
2.125534717E1,-1.479975879E-3
2.127222792E1,-3.106951714E-3
2.128911113E1,6.802678108E-4
2.130599489E1,-4.600018263E-3
2.132287703E1,-3.722637892E-3
2.133976353E1,-4.130572081E-3
2.135664364E1,-1.349419355E-3
2.137353197E1,-9.864196181E-4
2.139041092E1,-2.073422074E-3
2.140729351E1,-1.065440476E-3
2.142417171E1,-2.120435238E-3
2.144106295E1,-2.285592258E-3
2.145794539E1,5.448013544E-4
2.147482692E1,9.107813239E-4
2.149171651E1,-7.049314678E-3
2.150859723E1,1.017086208E-3
2.152548056E1,-1.146659255E-3
2.154237497E1,2.607539296E-3
2.155924767E1,-1.604221761E-3
2.157613089E1,-3.379397094E-3
2.159301521E1,-5.489632487E-3
2.160989834E1,-7.476657629E-5
2.162677943E1,7.406622171E-4
2.164366512E1,-6.122455001E-3
2.166053642E1,-3.063082695E-3
2.167742916E1,-3.754600883E-3
2.169431861E1,-5.002208054E-3
2.171119842E1,-4.063256085E-3
2.172807023E1,-2.693966031E-3
2.174497290E1,-1.865848899E-3
2.176185003E1,5.179047585E-4
2.177872830E1,-2.109721303E-3
2.179562112E1,2.288252115E-3
2.181248809E1,5.928710103E-3
2.182938474E1,-1.133181155E-3
2.184626867E1,-3.396943212E-4
2.186315056E1,-3.035217524E-4
2.188003483E1,-2.139456570E-3
2.189691653E1,-2.472236753E-3
2.191380225E1,-6.943419576E-4
2.193068539E1,-4.508048296E-4
2.194757323E1,-1.184254885E-3
2.196445224E1,-5.969628692E-4
2.198133629E1,-3.500044346E-3
2.199821846E1,-3.990538418E-3
2.201510399E1,-1.899003983E-3
2.203197350E1,-1.532308757E-3
2.204887044E1,-9.024888277E-4
2.206575358E1,2.101421356E-3
2.208262442E1,-3.301657736E-3
2.209951937E1,4.022866488E-3
2.211639652E1,-7.902309299E-4
2.213328775E1,4.359170794E-3
2.215017136E1,-1.766182482E-3
2.216705475E1,-4.988528788E-3
2.218392223E1,-4.297487438E-3
2.220081207E1,-4.158183932E-3
2.221770386E1,1.131914556E-3
2.223458879E1,5.456887186E-3
2.225147246E1,2.966150641E-4
2.226835596E1,-5.091205239E-4
2.228523914E1,-4.212334752E-3
2.230212337E1,-4.730120301E-3
2.231900658E1,-1.255497336E-4
2.233589022E1,7.009878755E-4
2.235277560E1,-3.269232810E-3
2.236965555E1,-2.746358514E-3
2.238654075E1,-6.629832089E-3
2.240342445E1,-1.350492239E-3
2.242030619E1,-6.309360266E-3
2.243717811E1,-1.195579767E-3
2.245407480E1,7.378682494E-4
2.247095854E1,-4.183776677E-3
2.248784190E1,-2.818249166E-3
2.250472560E1,-8.193477988E-4
2.252160898E1,1.783609390E-3
2.253848782E1,1.111567020E-3
2.255537947E1,-7.128216326E-3
2.257225947E1,-3.188766539E-3
2.258914298E1,7.227852941E-3
2.260602624E1,7.213205099E-4
2.262291051E1,-3.401637077E-4
2.263979369E1,-6.291598082E-3
2.265667276E1,-1.370526850E-3
2.267356007E1,-6.432309747E-4
2.269044679E1,-3.467231989E-3
2.270732933E1,-9.865313768E-4
2.272421149E1,-3.595687449E-3
2.274109481E1,-1.075871289E-3
2.275797696E1,1.505345106E-3
2.277486193E1,-6.222419441E-3
2.279174532E1,-4.272237420E-4
2.280862889E1,-2.486661077E-3
2.282551230E1,1.240380108E-3
2.284238290E1,-3.866255283E-4
2.285927830E1,-3.584422171E-3
2.287616294E1,8.723229170E-3
2.289304639E1,-1.121975482E-3
2.290992992E1,-2.523139119E-3
2.292681192E1,1.537054777E-4
2.294370360E1,1.674629748E-3
2.296056445E1,-7.354505360E-3
2.297745508E1,-6.664097309E-4
2.299434747E1,-5.500651896E-3
2.301124044E1,-4.507303238E-3
2.302811485E1,-2.525262535E-3
2.304499483E1,4.670672119E-3
2.306188496E1,-1.778423786E-3
2.307875247E1,-3.968909383E-3
2.309564854E1,-3.655858338E-3
2.311252959E1,-3.145933151E-4
2.312941852E1,-2.730391920E-3
2.314628969E1,-3.056578338E-3
2.316318289E1,-1.394614577E-3
2.318006502E1,-3.917574883E-3
2.319694974E1,-3.196239471E-3
2.321383334E1,5.752943456E-3
2.323071686E1,-4.014424980E-3
2.324759918E1,-5.386143923E-3
2.326448376E1,5.415484309E-3
2.328136744E1,1.840531826E-3
2.329824690E1,6.416440010E-4
2.331513855E1,1.636184752E-3
2.333201803E1,-1.096449792E-3
2.334890152E1,3.606379032E-4
2.336578490E1,-2.258956432E-3
2.338265578E1,-1.588456333E-3
2.339955205E1,-9.386762977E-4
2.341643562E1,3.033801913E-4
2.343331858E1,3.398880363E-3
2.345020295E1,-2.034261823E-3
2.346708621E1,-5.118697882E-3
2.348396979E1,2.519689500E-3
2.350083996E1,-3.932043910E-4
2.351773680E1,-2.671994269E-3
2.353462033E1,-4.145868123E-3
2.355150371E1,8.688792586E-4
2.356838586E1,-2.441436052E-3
2.358525585E1,2.241663635E-3
2.360215412E1,-5.165107548E-3
2.361903803E1,-2.665311098E-3
2.363592111E1,-2.942889929E-3
2.365280474E1,1.117445529E-3
2.366968841E1,-6.289258599E-3
2.368657168E1,1.332975924E-3
2.370345520E1,6.387457252E-4
2.372033891E1,3.548443317E-3
2.373722225E1,-4.743613303E-3
2.375410552E1,-1.402132213E-3
2.377098977E1,-8.357092738E-4
2.378785688E1,-2.495735884E-3
2.380475950E1,2.974309027E-3
2.382164020E1,2.119600773E-3
2.383852023E1,-2.088136971E-3
2.385540998E1,-8.435249329E-4
2.387229039E1,-5.760118365E-4
2.388917286E1,-2.491131425E-3
2.390605735E1,-8.753687143E-4
2.392294111E1,3.347784281E-3
2.393982354E1,3.631636500E-4
2.395670577E1,6.097778678E-4
2.397359447E1,-2.235740423E-3
2.399047552E1,-4.895932972E-3
2.400735871E1,2.749606967E-3
2.402424203E1,-7.005780935E-4
2.404112558E1,5.922019482E-4
2.405800904E1,3.634653986E-3
2.407488918E1,1.068398356E-3
2.409177952E1,-3.978088498E-4
2.410865959E1,-6.366372108E-4
2.412554336E1,-2.411738038E-3
2.414243814E1,-3.721855581E-3
2.415930857E1,-3.834031522E-3
2.417619357E1,3.105714917E-3
2.419307714E1,1.221269369E-3
2.420994460E1,9.753182530E-4
2.422684709E1,-2.654865384E-4
2.424372626E1,-3.269210458E-3
2.426061193E1,-2.656765282E-3
2.427748226E1,3.274559975E-3
2.429437847E1,1.237973571E-3
2.431125844E1,2.804256976E-3
2.432814833E1,1.279562712E-3
2.434502573E1,-1.885280013E-3
2.436191211E1,-1.668572426E-3
2.437879601E1,-3.431104124E-3
2.439567877E1,-6.613582373E-3
2.441256314E1,-1.743435860E-5
2.442944625E1,3.872334957E-3
2.444632988E1,-7.918551564E-4
2.446321334E1,7.744580507E-4
2.448009679E1,-1.917846501E-3
2.449695879E1,3.455378115E-3
2.451386371E1,-6.275668740E-3
2.453074590E1,2.791024745E-3
2.454763073E1,-3.417588770E-3
2.456450188E1,-9.008422494E-4
2.458140240E1,-3.477200866E-3
2.459827783E1,-3.907911479E-3
2.461516832E1,1.870989799E-4
2.463204823E1,-3.219254315E-3
2.464891706E1,-7.733777165E-4
2.466581547E1,-3.385297954E-3
2.468268675E1,-2.690635622E-3
2.469958294E1,-7.459968328E-4
2.471646212E1,-1.116544008E-3
2.473335272E1,5.540251732E-4
2.475023268E1,-3.195814788E-3
2.476711635E1,2.815574408E-4
2.478399126E1,-4.339940846E-3
2.480087033E1,-2.725049853E-3
2.481776694E1,4.247799516E-4
2.483465032E1,-2.444982529E-4
2.485152192E1,-3.321945667E-3
2.486841737E1,-1.509897411E-3
2.488530072E1,-5.932897329E-4
2.490218435E1,-3.477625549E-3
2.491906778E1,-2.664178610E-3
2.493595141E1,1.491203904E-3
2.495283493E1,-4.213906825E-3
2.496971894E1,-5.073398352E-3
2.498660181E1,2.252064645E-3
2.500348525E1,1.073546708E-3
2.502036888E1,-4.403099418E-3
2.503725116E1,7.269531488E-5
2.505413582E1,-6.294079125E-3
2.507100601E1,-3.240466118E-3
2.508790291E1,4.292950034E-3
2.510478636E1,1.194119453E-3
2.512166982E1,7.404014468E-4
2.513855070E1,-4.231184721E-4
2.515543980E1,-1.262068748E-3
2.517232043E1,-5.496270955E-3
2.518920070E1,-4.394367337E-3
2.520609047E1,1.614809036E-3
2.522297024E1,-1.054994762E-3
2.523985536E1,-8.171573281E-4
2.525673715E1,-3.604225814E-3
2.527362047E1,2.874553204E-3
2.529050818E1,2.062596381E-3
2.530738872E1,7.403567433E-4
2.532427179E1,-2.482406795E-3
2.534115290E1,1.186132431E-5
2.535804013E1,9.122416377E-3
2.537492223E1,-1.197986305E-3
2.539180620E1,1.987002790E-3
2.540868948E1,-4.696100950E-4
2.542557289E1,-8.960366249E-4
2.544243587E1,-1.657903194E-3
2.545934086E1,1.196168363E-3
2.547622021E1,5.223453045E-4
2.549311005E1,-7.818043232E-4
2.550998775E1,-3.894671798E-3
2.552687655E1,-7.278412580E-3
2.554374718E1,1.017525792E-3
2.556064107E1,-1.797676086E-3
2.557752215E1,9.285658598E-5
2.559440991E1,1.443818212E-3
2.561127838E1,3.477081656E-3
2.562817417E1,-3.157481551E-3
2.564505594E1,-2.881281078E-3
2.566194499E1,-5.034670234E-3
2.567881410E1,-4.338912666E-3
2.569570715E1,2.850472927E-3
2.571259232E1,-1.877568662E-3
2.572947580E1,3.129020333E-4
2.574636981E1,3.501094878E-3
2.576322970E1,2.191036940E-3
2.578012631E1,-2.121895552E-3
2.579700981E1,-1.040466130E-3
2.581389338E1,2.041935921E-3
2.583077678E1,-2.255320549E-3
2.584765910E1,-4.036016762E-3
2.586454354E1,1.577600837E-3
2.588142756E1,1.757204533E-3
2.589830737E1,6.370916963E-4
2.591517702E1,1.592412591E-3
2.593207782E1,5.403533578E-4
2.594896139E1,-3.670945764E-3
2.596584458E1,-3.223590553E-3
2.598271566E1,-2.324804664E-4
2.599961046E1,-2.654477954E-3
2.601649592E1,-1.633912325E-4
2.603337775E1,3.178261220E-3
2.605025066E1,-2.123847604E-3
2.606714558E1,-2.986438572E-3
2.608402910E1,-1.976832747E-3
2.610092686E1,-9.614974260E-5
2.611779626E1,-5.646772683E-3
2.613467966E1,-3.616146743E-3
2.615156323E1,-2.655565739E-3
2.616844665E1,7.355809212E-4
2.618532985E1,-2.090148628E-3
2.620221394E1,1.570858061E-3
2.621909700E1,3.211200237E-4
2.623597908E1,-2.792268991E-3
2.625286550E1,-2.617701888E-3
2.626974788E1,-3.132000566E-3
2.628663291E1,-3.165885806E-3
2.630351451E1,-7.272861898E-3
2.632039715E1,-7.868669927E-3
2.633728146E1,-2.056017518E-3
2.635416523E1,-2.862870693E-3
2.637104837E1,-2.396024764E-3
2.638793196E1,-8.041650057E-3
2.640481528E1,-4.837647080E-3
2.642169897E1,-1.476161182E-3
2.643857957E1,1.364037395E-3
2.645546927E1,-4.855096340E-4
2.647234933E1,3.340534866E-3
2.648923159E1,-9.649246931E-5
2.650611766E1,-5.693435669E-4
2.652300035E1,-6.446689367E-4
2.653988326E1,-3.520779312E-3
2.655676694E1,9.790807962E-5
2.657364993E1,5.948022008E-4
2.659053406E1,-1.056484878E-3
2.660741458E1,1.656427979E-3
2.662430376E1,9.215474129E-4
2.664118304E1,9.111538529E-4
2.665806792E1,6.080597639E-3
2.667495132E1,2.748720348E-3
2.669183461E1,1.163326204E-3
2.670871862E1,3.833308816E-3
2.672560196E1,2.497568727E-3
2.674248602E1,2.183347940E-3
2.675937192E1,-1.234933734E-4
2.677625201E1,7.169246674E-4
2.679313569E1,7.865726948E-4
2.681001913E1,3.822796047E-3
2.682689821E1,-3.895163536E-4
2.684378923E1,-3.249064088E-3
2.686066963E1,-3.729961812E-3
2.687755302E1,4.266262054E-3
2.689443613E1,1.473620534E-3
2.691131762E1,1.092761755E-3
2.692820638E1,-1.593232155E-4
2.694508703E1,-3.384426236E-4
2.696196088E1,-3.228001297E-3
2.697883810E1,4.884302616E-4
2.699574050E1,-7.488578558E-4
2.701260760E1,-3.252945840E-3
2.702950458E1,-2.379074693E-3
2.704638806E1,-4.737526178E-4
2.706327157E1,-1.837536693E-4
2.708015483E1,9.964555502E-4
2.709703508E1,-2.826660872E-3
2.711392498E1,2.428114414E-3
2.713080561E1,1.484617591E-3
2.714768743E1,2.517536283E-3
2.716455316E1,1.577645540E-3
2.718146800E1,1.526176929E-3
2.719833604E1,-5.566664040E-3
2.721522567E1,-7.750764489E-4
2.723210642E1,2.818673849E-3
2.724897414E1,1.632042229E-3
2.726587650E1,3.099143505E-4
2.728274475E1,1.346156001E-3
2.729963999E1,-2.516031265E-3
2.731652188E1,-3.151044250E-3
2.733340885E1,3.787286580E-3
2.735029083E1,4.819802940E-3
2.736717401E1,-4.917323589E-3
2.738404521E1,6.433948874E-4
2.740094102E1,2.659998834E-3
2.741782512E1,-2.931058407E-3
2.743470792E1,-3.161996603E-3
2.745159140E1,-2.139061689E-4
2.746847376E1,7.243283093E-3
2.748535851E1,2.513386309E-3
2.750222610E1,7.618591189E-4
2.751912862E1,5.616895854E-3
2.753600870E1,2.344489098E-3
2.755289272E1,-9.760707617E-4
2.756977567E1,2.560570836E-3
2.758665824E1,-8.598268032E-4
2.760354264E1,-2.524971962E-3
2.762042623E1,-1.530788839E-3
2.763730966E1,-2.066493034E-4
2.765419288E1,5.846768618E-4
2.767107724E1,-3.291368484E-3
2.768796005E1,-1.010023057E-3
2.770484027E1,-1.301988959E-3
2.772173041E1,4.921928048E-4
2.773861278E1,7.555708289E-4
2.775549202E1,8.454695344E-4
2.777237728E1,8.524730802E-4
2.778924784E1,-2.013184130E-3
2.780614335E1,4.469871521E-3
2.782302943E1,3.766417503E-3
2.783991171E1,1.370579004E-3
2.785679310E1,-7.256716490E-4
2.787367552E1,1.971080899E-3
2.789056510E1,-2.824433148E-3
2.790744550E1,-5.331903696E-3
2.792432886E1,-2.749063075E-3
2.794120906E1,1.673132181E-3
2.795808020E1,6.320305169E-3
2.797497890E1,2.946056426E-3
2.799186290E1,-4.510655999E-4
2.800874417E1,4.745870829E-3
2.802563213E1,1.517415047E-3
2.804251170E1,5.053289235E-3
2.805939666E1,9.109228849E-4
2.807627815E1,2.041421831E-3
2.809316569E1,-1.759424806E-3
2.811004674E1,-1.228161156E-3
2.812692933E1,6.213113666E-4
2.814379646E1,9.841993451E-4
2.816068473E1,2.088777721E-3
2.817757834E1,1.157797873E-3
2.819446576E1,3.209859133E-3
2.821134804E1,6.368234754E-4
2.822823160E1,8.197873831E-4
2.824511499E1,-2.182215452E-3
2.826199672E1,-1.448087394E-3
2.827887120E1,2.692952752E-3
2.829576479E1,-1.789279282E-3
2.831264892E1,-1.259878278E-3
2.832953202E1,-1.158654690E-3
2.834641556E1,6.165876985E-4
2.836329658E1,4.917271435E-3
2.838017226E1,-1.378446817E-3
2.839706644E1,-2.299755812E-3
2.841394955E1,1.643054187E-3
2.843082719E1,2.258934081E-3
2.844772653E1,5.340151489E-3
2.846459991E1,6.794966757E-3
2.848148339E1,1.324489713E-4
2.849836206E1,-9.055957198E-4
2.851525337E1,-9.398907423E-5
2.853213365E1,1.968137920E-3
2.854901740E1,3.473132849E-3
2.856590053E1,7.938966155E-4
2.858277130E1,-1.853778958E-3
2.859966771E1,-1.139529049E-3
2.861654714E1,3.650970757E-3
2.863343841E1,1.383334398E-3
2.865030522E1,3.309324384E-4
2.866720156E1,4.757270217E-3
2.868408513E1,1.413248479E-3
2.870096895E1,4.932276905E-3
2.871785190E1,-3.470554948E-4
2.873473546E1,-1.219116151E-3
2.875161924E1,4.236474633E-4
2.876849753E1,-2.212062478E-3
2.878539052E1,1.371204853E-3
2.880226930E1,-1.016765833E-3
2.881915152E1,7.356442511E-3
2.883603607E1,1.620970666E-3
2.885291962E1,7.702201605E-3
2.886980329E1,-2.432376146E-3
2.888668629E1,-2.788290381E-3
2.890355779E1,-4.592001438E-3
2.892045359E1,-3.097750247E-3
2.893733594E1,2.950809896E-3
2.895422066E1,-8.611753583E-4
2.897110381E1,2.600103617E-3
2.898798734E1,-9.494796395E-4
2.900487068E1,6.701454520E-3
2.902175476E1,4.506707191E-3
2.903863802E1,1.216925681E-3
2.905552131E1,4.750475287E-3
2.907240501E1,-5.752220750E-4
2.908928483E1,-2.478525043E-3
2.910617512E1,3.100126982E-3
2.912305531E1,1.044362783E-3
2.913993316E1,-6.310611963E-3
2.915682608E1,-3.982484341E-4
2.917370565E1,5.654513836E-3
2.919058881E1,-5.563639104E-3
2.920746911E1,-2.523064613E-4
2.922435934E1,1.660019159E-3
2.924123617E1,3.062479198E-3
2.925812374E1,-2.633012831E-3
2.927500756E1,1.202479005E-3
2.929188991E1,3.098055720E-3
2.930877314E1,2.245664597E-3
2.932565657E1,6.786070764E-3
2.934252736E1,2.740785480E-3
2.935942380E1,-4.313439131E-3
2.937630734E1,5.103290081E-3
2.939319085E1,2.664551139E-4
2.941006079E1,-7.987022400E-6
2.942695751E1,-1.197800040E-3
2.944383869E1,2.925544977E-4
2.946071916E1,-4.180260003E-3
2.947758655E1,2.108469605E-3
2.949449133E1,-2.638101578E-4
2.951136968E1,1.567803323E-3
2.952826321E1,7.501617074E-4
2.954514173E1,1.737721264E-3
2.956202190E1,3.055244684E-3
2.957889622E1,3.275908530E-3
2.959579518E1,1.012660563E-3
2.961267559E1,6.531104445E-4
2.962955892E1,6.854392588E-3
2.964644208E1,2.684026957E-3
2.966331391E1,-2.132251859E-3
2.968020943E1,1.199170947E-3
2.969709307E1,4.551082850E-3
2.971395556E1,-8.427500725E-4
2.973085975E1,-3.881230950E-3
2.974774326E1,-2.034582198E-3
2.976462658E1,-2.807855606E-3
2.978151199E1,1.204468310E-3
2.979839033E1,-4.922151566E-4
2.981527712E1,-1.408107579E-3
2.983216373E1,1.410804689E-3
2.984904405E1,4.730343819E-3
2.986592792E1,3.526680171E-3
2.988279895E1,-7.949769497E-4
2.989969299E1,1.513980329E-3
2.991656370E1,7.535517216E-4
2.993346219E1,2.885833383E-3
2.995034509E1,3.236085176E-3
2.996722690E1,-7.893592119E-4
2.998410942E1,3.342203796E-3
3.000099522E1,2.103798091E-3
3.001787843E1,6.706565619E-4
3.003476218E1,-1.327805221E-3
3.005164551E1,1.326605678E-3
3.006852907E1,-2.347096801E-3
3.008541224E1,-2.963632345E-3
3.010229602E1,-1.275539398E-3
3.011917934E1,1.237452030E-3
3.013606264E1,-2.400442958E-3
3.015294595E1,-2.863749862E-3
3.016981372E1,4.111312330E-3
3.018670441E1,-7.075145841E-4
3.020359675E1,-1.395449042E-3
3.022047880E1,-1.519501209E-3
3.023736352E1,-3.280147910E-3
3.025424728E1,5.081295967E-6
3.027113037E1,6.365105510E-4
3.028801280E1,1.828476787E-3
3.030489578E1,1.939721406E-3
3.036398938E1,6.927780807E-3
3.038086543E1,2.167761326E-3
3.039775615E1,6.094254553E-3
3.041464041E1,4.452206194E-3
3.043152348E1,6.598532200E-4
3.044841339E1,7.623210549E-4
3.046528994E1,3.672294319E-3
3.048217486E1,3.389693797E-3
3.049905711E1,-1.851797104E-3
3.051595097E1,1.448579133E-3
3.053282355E1,1.821190119E-3
3.054969578E1,-9.927228093E-4
3.056659074E1,5.092673004E-3
3.058347567E1,2.414457500E-3
3.060035758E1,-3.843039274E-3
3.061724227E1,-1.179553568E-3
3.063412166E1,2.658538520E-3
3.065101247E1,3.260269761E-3
3.066789012E1,5.102664232E-3
3.068477892E1,-1.663640141E-3
3.070165562E1,-2.687387168E-3
3.071852719E1,2.334170043E-3
3.073542462E1,-3.301650286E-4
3.075231016E1,3.385469317E-4
3.076919256E1,4.322007298E-4
3.078607693E1,-1.399464905E-3
3.080295899E1,1.234605908E-3
3.081984372E1,2.797938883E-3
3.083672359E1,-2.127386630E-3
3.085361744E1,-1.754581928E-3
3.087048972E1,-5.708657205E-3
3.088737732E1,-2.264559269E-3
3.090425993E1,7.884949446E-5
3.092114143E1,-1.322038472E-3
3.093800786E1,1.413859427E-3
3.095491144E1,1.801937819E-3
3.097179367E1,-5.124934018E-3
3.098867704E1,-6.124950945E-3
3.100555906E1,-3.268748522E-3
3.102244594E1,2.921834588E-3
3.103932779E1,-2.093054354E-3
3.105621179E1,-2.793513238E-3
3.107309120E1,-3.947176039E-3
3.108998195E1,-2.956882119E-3
3.110686117E1,5.977533758E-3
3.112374642E1,-2.218931913E-4
3.114061755E1,-1.189038157E-3
3.115751200E1,-5.975812674E-4
3.117439386E1,-4.858747125E-4
3.119128077E1,-1.138605177E-3
3.120816158E1,4.633769393E-3
3.122504641E1,-3.582313657E-4
3.124192881E1,1.790016890E-3
3.125881347E1,2.198353410E-3
3.127569537E1,2.274788916E-3
3.129257877E1,-5.569681525E-4
3.130946826E1,-2.145282924E-3
3.132634739E1,1.656681299E-3
3.134320775E1,-7.568374276E-4
3.136011355E1,1.791298389E-3
3.137699183E1,-7.587000728E-4
3.139388400E1,-1.207567751E-3
3.141075680E1,2.773389220E-3
3.142764749E1,-1.984536648E-3
3.144452694E1,4.226617515E-3
3.146141792E1,3.366336226E-3
3.147829672E1,-8.863806725E-4
3.149518091E1,-3.749780357E-3
3.151206399E1,-1.874729991E-3
3.152894843E1,-1.609325409E-3
3.154583039E1,1.517906785E-4
3.156271497E1,-1.371152699E-3
3.157959785E1,-1.014664769E-3
3.159648520E1,1.254811883E-3
3.161336685E1,-2.412535250E-3
3.163024749E1,-7.146075368E-4
3.164712378E1,1.311272383E-3
3.166401593E1,2.682574093E-3
3.168088491E1,5.195349455E-3
3.169778128E1,1.054465771E-3
3.171466511E1,-2.510800958E-3
3.173154996E1,-1.407489181E-4
3.174843161E1,2.421699464E-3
3.176531628E1,-1.203931868E-3
3.178219885E1,-5.770452321E-3
3.179908370E1,-1.718275249E-3
3.181595207E1,-1.622401178E-3
3.183285337E1,-1.691713929E-3
3.184972999E1,-2.789944410E-3
3.186661749E1,-2.970814705E-3
3.188349913E1,1.694433391E-3
3.190038449E1,6.475597620E-4
3.191726628E1,4.565134645E-3
3.193414792E1,3.941327333E-3
3.195103498E1,2.049826086E-3
3.196791763E1,-2.306506038E-3
3.198480006E1,-1.241035759E-3
3.200168388E1,-1.732587814E-3
3.201857262E1,6.560981274E-5
3.203545124E1,-3.744810820E-3
3.205233347E1,4.910901189E-3
3.206921591E1,1.005738974E-3
3.208610049E1,1.586623490E-3
3.210298537E1,4.516236484E-3
3.211986768E1,8.896887302E-4
3.213673766E1,1.461036503E-3
3.215363745E1,5.582131445E-3
3.217051895E1,-3.605484962E-3
3.218740132E1,-3.179579973E-3
3.220428559E1,-3.128841519E-3
3.222116846E1,-8.090734482E-4
3.223805259E1,-1.613453031E-3
3.225493499E1,1.171149313E-3
3.227181663E1,4.389286041E-4
3.228870623E1,-8.206814528E-4
3.230558513E1,-1.073487103E-3
3.232246846E1,-5.768761039E-4
3.233935586E1,-1.708716154E-3
3.235623195E1,-1.880787313E-3
3.237312017E1,2.234861255E-3
3.239000260E1,-1.464039087E-4
3.240688405E1,1.320801675E-3
3.242377292E1,-4.363447428E-3
3.244064086E1,-4.650205374E-4
3.245753502E1,1.341782510E-3
3.247441792E1,2.821043134E-3
3.249130633E1,-1.087568700E-3
3.250818747E1,-4.439800978E-4
3.252506975E1,-2.640083432E-3
3.254195299E1,-4.060074687E-3
3.255883891E1,9.020417929E-4
3.257572117E1,4.503361881E-3
3.259260373E1,-1.983575523E-3
3.260947586E1,7.346272469E-6
3.262637027E1,3.386661410E-4
3.264325523E1,1.554869115E-3
3.266013600E1,1.768581569E-3
3.267702962E1,-4.693865776E-6
3.269390395E1,3.665313125E-4
3.271078557E1,1.597531140E-3
3.272767445E1,-2.338714898E-3
3.274454999E1,5.270794034E-3
3.276143796E1,4.110440612E-3
3.277832960E1,-4.781439900E-3
3.279520478E1,-2.081111073E-3
3.281207656E1,1.340739429E-3
3.282895898E1,1.829333603E-3
3.284585616E1,1.889772713E-3
3.286273924E1,1.935854554E-3
3.287962338E1,-2.231523395E-3
3.289650186E1,1.099333167E-3
3.291339318E1,5.704626441E-3
3.293027247E1,-5.968958139E-4
3.294715712E1,-1.557238400E-3
3.296403882E1,-2.793133259E-3
3.298091123E1,-2.460926771E-5
3.299780623E1,-2.541288733E-3
3.301469073E1,2.106957138E-3
3.303157255E1,1.729808748E-3
3.304845442E1,-5.214974284E-3
3.306533975E1,7.381066680E-4
3.308221226E1,1.667656004E-3
3.309910516E1,-4.335790873E-4
3.311598349E1,-2.498939633E-3
3.313287357E1,2.410262823E-3
3.314975849E1,1.995064318E-3
3.316664417E1,4.934601486E-3
3.318352516E1,6.527796388E-3
3.320040736E1,-2.332180738E-4
3.321729190E1,1.601636410E-3
3.323417557E1,3.704778850E-3
3.325105686E1,-3.516845405E-3
3.326794088E1,-2.845086157E-3
3.328482586E1,2.699568868E-4
3.330170772E1,-3.985814750E-3
3.331857667E1,6.890296936E-5
3.333548567E1,7.219761610E-4
3.335235958E1,3.668159246E-3
3.336924116E1,-6.458982825E-4
3.338612591E1,1.668736339E-3
3.340300866E1,4.961736500E-3
3.341989181E1,-5.589663982E-3
3.343677163E1,-4.112325609E-3
3.345366296E1,-4.610493779E-4
3.347054204E1,3.637395799E-3
3.348742240E1,2.405211329E-3
3.350431211E1,5.804970860E-4
3.352118863E1,-7.631331682E-4
3.353808088E1,-1.090578735E-3
3.355494876E1,6.998032331E-4
3.357183250E1,9.478628635E-4
3.358871140E1,2.107612789E-3
3.360561258E1,1.183532178E-3
3.362249442E1,-7.724553347E-3
3.363937613E1,-2.122893929E-4
3.365626071E1,3.217034042E-3
3.367314217E1,-3.429055214E-4
3.369002906E1,8.912086487E-4
3.370690980E1,3.335453570E-3
3.372379437E1,-4.163682461E-4
3.374066470E1,-2.219468355E-3
3.375756161E1,-1.348502934E-3
3.377444008E1,-1.326419413E-3
3.379133157E1,-2.449706197E-3
3.380820940E1,-1.439213753E-3
3.382508776E1,3.396853805E-3
3.384197764E1,7.435679436E-6
3.385886186E1,-1.204706728E-3
3.387574432E1,1.528814435E-3
3.389262895E1,1.927688718E-3
3.390950792E1,-9.419322014E-4
3.392638631E1,1.531720161E-3
3.394326235E1,-1.025013626E-3
3.396015948E1,-2.553708851E-3
3.397704773E1,1.714974642E-4
3.399392886E1,-1.222915947E-3
3.401079930E1,2.604380250E-3
3.402769634E1,8.901208639E-4
3.404457566E1,-2.252154052E-3
3.406146555E1,-2.690263093E-3
3.407833294E1,-2.774506807E-3
3.409522994E1,2.388164401E-3
3.411211183E1,-9.550824761E-4
3.412899522E1,-1.566551626E-3
3.414587899E1,-1.657299697E-3
3.416276384E1,-2.767078578E-3
3.417964580E1,-1.766875386E-3
3.419652702E1,-2.719357610E-3
3.421341602E1,-8.714497089E-3
3.423029744E1,-3.782637417E-3
3.424716583E1,-3.097459674E-3
3.426406387E1,-7.875263691E-5
3.428093490E1,2.193607390E-3
3.429783097E1,-2.098083496E-5
3.431470337E1,2.916231751E-4
3.433159824E1,3.728419542E-4
3.434846071E1,-1.320220530E-3
3.436536472E1,1.261971891E-3
3.438224684E1,-1.123584807E-3
3.439913096E1,1.446731389E-3
3.441601447E1,1.757629216E-3
3.443289836E1,1.790903509E-3
3.444978047E1,-2.274528146E-3
3.446666203E1,-1.712545753E-3
3.448354745E1,-3.605559468E-4
3.450043205E1,-2.463631332E-3
3.451730236E1,-3.437779844E-3
3.453419867E1,-1.911982894E-3
3.455108115E1,1.288793981E-3
3.456796581E1,1.745514572E-3
3.458484780E1,-1.019418240E-3
3.460173758E1,4.157200456E-4
3.461860361E1,-5.283959210E-3
3.463549900E1,-3.173515201E-3
3.465238166E1,3.449738026E-3
3.466926612E1,3.187559545E-3
3.468614524E1,2.007476985E-3
3.470303659E1,-2.244643867E-3
3.471991507E1,2.885766327E-3
3.473679632E1,8.296370506E-4
3.475368556E1,5.723759532E-3
3.477056280E1,1.060813665E-4
3.478745207E1,1.561857760E-3
3.480433334E1,-1.163102686E-3
3.482121591E1,-3.857605159E-3
3.483810066E1,-2.005189657E-3
3.485498230E1,3.011025488E-3
3.487186705E1,-4.960767925E-3
3.488875007E1,-3.209412098E-3
3.490563359E1,-5.827397108E-3
3.492251649E1,-2.991855145E-4
3.493940337E1,-2.411857247E-3
3.495627971E1,-1.655578613E-3
3.497316833E1,-6.681181490E-3
3.499004981E1,-4.809796810E-4
3.500693434E1,-2.582818270E-4
3.502381704E1,1.549817622E-3
3.504069316E1,1.802101731E-3
3.505758338E1,1.869700849E-3
3.507446492E1,6.674975157E-4
3.509135526E1,2.793215215E-3
3.510823368E1,-9.648948908E-4
3.512511534E1,1.369319856E-3
3.514200188E1,1.653835177E-3
3.515888419E1,2.770014107E-3
3.517576880E1,-3.446266055E-3
3.519265071E1,-3.249362111E-3
3.520952482E1,8.713901043E-4
3.522641772E1,-4.415452480E-3
3.524330266E1,1.755677164E-3
3.526018118E1,4.486963153E-4
3.527707100E1,2.009257674E-3
3.529393073E1,5.431398749E-4
3.531083610E1,1.525059342E-3
3.532771476E1,1.638621092E-3
3.534460598E1,-1.458302140E-4
3.536147187E1,1.301087439E-3
3.537835674E1,1.458026469E-3
3.539524819E1,3.369674087E-4
3.541213952E1,1.511946321E-4
3.542901872E1,1.072362065E-4
3.544590344E1,3.127008677E-5
3.546278538E1,-2.898007631E-3
3.547967043E1,3.577977419E-3
3.549653673E1,5.485266447E-4
3.551344084E1,1.310467720E-3
3.553029839E1,1.500822604E-3
3.554720354E1,-4.281416535E-3
3.556408604E1,-3.275789320E-3
3.558095766E1,-2.240240574E-4
3.559783958E1,4.231736064E-3
3.561473721E1,3.113135695E-3
3.563161962E1,1.847513020E-3
3.564850431E1,4.552714527E-3
3.566537266E1,2.027474344E-3
3.568227160E1,-1.281730831E-3
3.569915333E1,-1.684688032E-3
3.571603779E1,-6.899125874E-3
3.573290810E1,1.651741564E-3
3.574980514E1,2.916209400E-3
3.576668583E1,-3.176055849E-3
3.578357131E1,-2.918370068E-3
3.580045381E1,-6.201416254E-4
3.581733832E1,1.503005624E-3
3.583422043E1,9.192526340E-5
3.585110562E1,3.341682255E-3
3.586798708E1,2.027533948E-3
3.588487208E1,1.917019486E-3
3.590175449E1,-2.126619220E-3
3.591862599E1,3.035493195E-3
3.593552069E1,9.437724948E-4
3.595240567E1,-1.218728721E-3
3.596928463E1,1.322723925E-3
3.598617570E1,-1.112774014E-3
3.600305442E1,-1.500040293E-3
3.601993904E1,1.692101359E-4
3.603682160E1,1.555807889E-3
3.605369304E1,-1.062437892E-3
3.607058788E1,-2.910941839E-4
3.608747283E1,2.677015960E-3
3.610435513E1,2.034254372E-3
3.612124040E1,3.153525293E-3
3.613812177E1,4.774555564E-4
3.615500789E1,1.832276583E-3
3.617188398E1,1.975238323E-3
3.618877679E1,1.992881298E-3
3.620565533E1,-1.967512071E-3
3.622254026E1,-1.397140324E-3
3.623941778E1,-2.457469702E-3
3.625630864E1,1.532495022E-3
3.627319062E1,9.744018316E-4
3.629007386E1,-8.995980024E-4
3.630695614E1,-5.289256573E-3
3.632384062E1,-1.786448061E-3
3.634071112E1,2.872712910E-3
3.635760756E1,-4.025325179E-4
3.637448749E1,1.998193562E-3
3.639137653E1,-6.180405617E-4
3.640825618E1,3.140904009E-3
3.642513664E1,1.460537314E-3
3.644202776E1,2.222567797E-3
3.645890476E1,2.291627228E-3
3.647579321E1,-5.687400699E-4
3.649267409E1,1.952745020E-3
3.650955532E1,2.415001392E-3
3.652644176E1,3.641806543E-3
3.654332647E1,8.875578642E-4
3.656020368E1,-1.807525754E-3
3.657709072E1,-4.350021482E-4
3.659397538E1,2.033688128E-3
3.661085959E1,-1.657426357E-3
3.662773438E1,-1.081928611E-3
3.664462875E1,-9.996965528E-4
3.666150902E1,-9.417906404E-4
3.667840253E1,-3.811731935E-3
3.669527532E1,1.632265747E-3
3.671214472E1,1.351401210E-3
3.672904307E1,-1.625396311E-3
3.674592398E1,-6.130196154E-3
3.676280980E1,-4.847422242E-4
3.677969134E1,1.010447741E-3
3.679657277E1,2.412490547E-3
3.681344989E1,-3.139227629E-4
3.683034288E1,-6.304904819E-4
3.684722492E1,-1.734301448E-3
3.686410962E1,3.962859511E-3
3.688097533E1,5.058944225E-5
3.689787642E1,-1.470491290E-3
3.691476156E1,-4.599571228E-3
3.693163018E1,1.892372966E-3
3.694852515E1,1.676976681E-3
3.696540992E1,4.657022655E-3
3.698229244E1,2.206981182E-3
3.699917685E1,2.952471375E-3
3.701604637E1,-2.731069922E-3
3.703294345E1,1.189202070E-3
3.704982564E1,-4.059821367E-5
3.706670918E1,1.484468579E-3
3.708359270E1,1.699231565E-3
3.710047701E1,2.943299711E-3
3.711735962E1,3.091692924E-3
3.713424400E1,2.002939582E-3
3.715112627E1,2.942278981E-3
3.716800826E1,1.325771213E-3
3.718489534E1,1.701563597E-3
3.720177762E1,2.970650792E-3
3.721864654E1,1.987211406E-3
3.723554429E1,7.648356259E-3
3.725241504E1,5.597829819E-3
3.726931091E1,2.434432507E-3
3.728619348E1,1.867093146E-3
3.730307778E1,-1.099988818E-3
3.731996016E1,-1.571916044E-3
3.733684495E1,6.089955568E-4
3.735372670E1,2.599410713E-3
3.737061148E1,9.908378124E-3
3.738749265E1,-3.121845424E-3
3.740437880E1,8.057802916E-4
3.742126055E1,-4.414916039E-3
3.743814184E1,1.748107374E-3
3.745503075E1,1.521080732E-3
3.747191235E1,5.364187062E-3
3.748879389E1,4.052326083E-3
3.750567544E1,1.673981547E-3
3.752256429E1,4.141680896E-3
3.753944588E1,-1.338966191E-3
3.755632892E1,-2.779029310E-3
3.757321045E1,1.832894981E-3
3.759009497E1,-1.567929983E-3
3.760697942E1,-3.281347454E-3
3.762385795E1,2.875469625E-3
3.764073278E1,2.628736198E-3
3.765763150E1,6.668433547E-3
3.767451329E1,3.200396895E-4
3.769139448E1,5.318880081E-3
3.770827854E1,3.152363002E-3
3.772516498E1,-2.939939499E-3
3.774204076E1,-9.213760495E-4
3.775893709E1,-6.408765912E-4
3.777579965E1,1.217737794E-3
3.779269598E1,-3.118589520E-4
3.780957775E1,2.355486155E-3
3.782646554E1,1.550346613E-3
3.784333238E1,-1.452058554E-3
3.786022883E1,2.123787999E-3
3.787711363E1,2.638332546E-3
3.789399240E1,-1.362189651E-3
3.791086506E1,9.868666530E-4
3.792776260E1,-4.709064960E-4
3.794464722E1,2.157457173E-3
3.796152937E1,-4.794076085E-4
3.797841375E1,2.087168396E-3
3.799529621E1,2.393074334E-3
3.801218087E1,1.338660717E-3
3.802906136E1,2.281837165E-3
3.804594729E1,2.348899841E-3
3.806282060E1,2.990424633E-3
3.807971435E1,5.381211638E-3
3.809659308E1,1.005016267E-3
3.811348427E1,4.245564342E-4
3.813035242E1,2.082705498E-3
3.814723412E1,-1.793004572E-3
3.816413293E1,2.312429249E-3
3.818101098E1,2.210162580E-3
3.819789691E1,4.012361169E-3
3.821476867E1,6.415583193E-3
3.823166369E1,-3.077015281E-4
3.824854809E1,1.642838120E-3
3.826543043E1,-1.061417162E-3
3.828232467E1,4.047080874E-4
3.829919707E1,6.388127804E-4
3.831608177E1,-5.277246237E-5
3.833296410E1,-2.487443388E-3
3.834984748E1,4.157245159E-3
3.836673040E1,-1.844443381E-3
3.838361501E1,-1.580044627E-3
3.840049759E1,2.175271511E-4
3.841738100E1,1.555033028E-3
3.843425988E1,-4.039272666E-3
3.845114018E1,-2.533048391E-4
3.846803143E1,-8.775815368E-4
3.848491590E1,1.546815038E-4
3.850179762E1,-5.442313850E-3
3.851866973E1,-2.257980406E-3
3.853556442E1,-2.876810730E-3
3.855244963E1,2.893276513E-3
3.856933166E1,-9.633153677E-4
3.858621603E1,2.249926329E-4
3.860309818E1,-1.342989504E-3
3.861998343E1,-2.732425928E-3
3.863686509E1,-8.247792721E-5
3.865375011E1,-2.873241901E-4
3.867063019E1,-3.361478448E-4
3.868751354E1,-2.624712884E-3
3.870440165E1,-5.897134542E-5
3.872128339E1,1.449838281E-3
3.873816459E1,5.776882172E-4
3.875505013E1,5.709312856E-3
3.877192870E1,3.475092351E-3
3.878881999E1,-8.765384555E-4
3.880569927E1,2.316907048E-4
3.882258397E1,1.519925892E-3
3.883946233E1,1.101292670E-3
3.885635032E1,-2.386741340E-3
3.887323596E1,2.262942493E-3
3.889011753E1,3.593653440E-3
3.890699608E1,-9.750574827E-4
3.892388654E1,2.979144454E-3
3.894075360E1,1.782223582E-3
3.895765089E1,-6.417565048E-3
3.897453296E1,5.340576172E-4
3.899141510E1,3.822728992E-3
3.900830105E1,-8.874684572E-4
3.902518559E1,-1.560144126E-3
3.904206601E1,4.154361784E-3
3.905894962E1,2.128720284E-3
3.907583090E1,-1.068137586E-3
3.909272039E1,-2.703085542E-3
3.910960316E1,4.061207175E-3
3.912648459E1,3.035590053E-4
3.914336715E1,1.460909843E-3
3.916024828E1,-2.373136580E-3
3.917713503E1,1.030936837E-3
3.919401831E1,-1.328296959E-3
3.921090038E1,-2.785794437E-3
3.922778516E1,3.298714757E-3
3.924466651E1,-2.868637443E-3
3.926155215E1,-1.259595156E-4
3.927843383E1,1.393489540E-3
3.929531866E1,1.556858420E-3
3.931220058E1,-3.664128482E-3
3.932908101E1,1.871056855E-3
3.934596752E1,4.419654608E-3
3.936285240E1,4.056096077E-5
3.937973278E1,-5.760475993E-3
3.939660229E1,-3.677718341E-3
3.941350312E1,2.559877932E-3
3.943038788E1,-1.180641353E-3
3.944726766E1,6.957352161E-5
3.946415219E1,-4.616752267E-4
3.948102336E1,1.019015908E-4
3.949791802E1,-3.827966750E-3
3.951480116E1,-3.350004554E-3
3.953168570E1,-3.175705671E-3
3.954856812E1,9.827315807E-4
3.956545284E1,1.628972590E-3
3.958233520E1,2.887614071E-3
3.959921941E1,1.916423440E-3
3.961610169E1,-2.844654024E-3
3.963298664E1,2.960115671E-5
3.964985426E1,-4.254311323E-3
3.966676613E1,-6.040163338E-3
3.968363209E1,6.082355976E-4
3.970051865E1,3.387123346E-3
3.971740188E1,2.005442977E-3
3.973428328E1,1.831322908E-3
3.975117204E1,4.646591842E-3
3.976805351E1,5.155511200E-3
3.978493549E1,5.242161453E-3
3.980182023E1,5.221776664E-3
3.981869077E1,5.249008536E-3
3.983558712E1,-1.748077571E-3
3.985246615E1,3.070563078E-3
3.986935636E1,-8.783414960E-4
3.988623541E1,1.323141158E-3
3.990310766E1,3.334783018E-3
3.992000236E1,4.818700254E-3
3.993688712E1,3.281421959E-3
3.995376840E1,-3.399088979E-3
3.997065485E1,7.879659534E-4
3.998753615E1,2.205148339E-4
4.000442049E1,1.292973757E-4
4.002130473E1,1.287527382E-3
4.003818391E1,2.557039261E-4
4.005507335E1,9.548664093E-5
4.007195448E1,4.107803106E-3
4.008883632E1,2.423889935E-3
4.010572105E1,1.604855061E-3
4.012260315E1,-1.568883657E-3
4.013947778E1,-2.044484019E-3
4.015636717E1,8.441284299E-4
4.017325472E1,3.092527390E-3
4.019013979E1,5.923882127E-4
4.020701998E1,-2.731703222E-3
4.022390345E1,2.048566937E-3
4.024077542E1,3.387026489E-3
4.025767161E1,-5.126863718E-3
4.027455309E1,-5.346015096E-4
4.029143698E1,1.972213387E-3
4.030831577E1,5.682043731E-3
4.032520372E1,3.410272300E-3
4.034207385E1,-2.001687884E-3
4.035897219E1,4.118472338E-3
4.037584224E1,-1.994192600E-3
4.039273675E1,1.185812056E-3
4.040961879E1,-2.255171537E-3
4.042650724E1,-2.803042531E-3
4.044338879E1,-1.757279038E-3
4.046026929E1,-1.708440483E-3
4.047715520E1,5.277492106E-3
4.049403752E1,3.291480243E-3
4.051092232E1,3.039389849E-3
4.052780285E1,1.841574907E-3
4.054468886E1,5.618482828E-4
4.056157130E1,-1.534000039E-3
4.057845585E1,1.072779298E-3
4.059534400E1,2.100847661E-3
4.061221350E1,1.744240522E-3
4.062910480E1,1.603893936E-3
4.064598927E1,1.676805317E-3
4.066287107E1,-2.493701875E-3
4.067975097E1,-1.228943467E-3
4.069664199E1,2.987846732E-3
4.071352359E1,2.958193421E-3
4.073040499E1,1.852765679E-3
4.074728557E1,-2.387493849E-3
4.076417178E1,3.336153924E-3
4.078105525E1,3.738991916E-3
4.079793807E1,-2.060152590E-3
4.081480624E1,4.024714231E-3
4.083170511E1,2.058908343E-3
4.084858850E1,6.221234798E-6
4.086547169E1,1.460216939E-3
4.088235623E1,4.681609571E-3
4.089923873E1,6.316758692E-3
4.091612355E1,-4.868507385E-4
4.093300509E1,4.416927695E-3
4.094988984E1,3.887452185E-3
4.096677214E1,2.870261669E-4
4.098365704E1,1.505836844E-3
4.100052119E1,1.674339175E-3
4.101742344E1,1.836597919E-3
4.103430345E1,4.739925265E-3
4.105119403E1,-2.943761647E-3
4.106807066E1,2.210624516E-3
4.108495688E1,1.887731254E-3
4.110183942E1,4.630893469E-3
4.111872934E1,-8.441358805E-4
4.113560603E1,2.112537622E-4
4.115249019E1,1.578107476E-3
4.116937157E1,2.987615764E-3
4.118625741E1,9.015798569E-4
4.120313926E1,6.238296628E-4
4.122002383E1,1.597180963E-3
4.123690620E1,-1.070961356E-3
4.125379107E1,5.419738591E-3
4.127067268E1,2.431392670E-3
4.128754467E1,3.134362400E-3
4.130444000E1,2.079322934E-3
4.132132448E1,3.091119230E-3
4.133820620E1,8.988529444E-4
4.135509037E1,-2.303123474E-3
4.137197026E1,2.164617181E-4
4.138886099E1,6.714984775E-4
4.140573969E1,7.112622261E-4
4.142262456E1,1.839496195E-3
4.143950411E1,-2.006880939E-3
4.145639481E1,4.174485803E-4
4.147326907E1,1.889199018E-3
4.149015987E1,-7.187798619E-4
4.150704012E1,-5.283951759E-5
4.152392165E1,7.397979498E-4
4.154079701E1,-9.927302599E-4
4.155769118E1,1.662582159E-3
4.157457369E1,-1.901462674E-3
4.159145630E1,1.690849662E-3
4.160834243E1,-6.136521697E-4
4.162522476E1,7.435232401E-4
4.164210130E1,-7.925853133E-4
4.165899177E1,7.354840636E-4
4.167587036E1,4.454106092E-3
4.169276148E1,2.605594695E-3
4.170964068E1,2.422034740E-3
4.172653041E1,1.175254583E-3
4.174340408E1,3.293879330E-3
4.176029495E1,-4.162937403E-4
4.177717417E1,3.053188324E-3
4.179405872E1,2.471171319E-3
4.181093935E1,-5.623996258E-4
4.182782515E1,-5.034022033E-3
4.184470754E1,-1.073367894E-3
4.186159244E1,6.024837494E-4
4.187846832E1,7.461830974E-4
4.189537230E1,1.951463521E-3
4.191224103E1,2.714768052E-4
4.192911393E1,6.090104580E-4
4.194598516E1,1.784197986E-3
4.196289240E1,-9.724274278E-4
4.197977452E1,4.311278462E-4
4.199665532E1,4.569694400E-3
4.201352886E1,4.050225019E-3
4.203042573E1,2.214118838E-3
4.204730798E1,1.910105348E-3
4.206419269E1,-1.023516059E-3
4.208106149E1,1.480668783E-3
4.209795916E1,7.475018501E-4
4.211484201E1,1.749999821E-3
4.213172609E1,3.664225340E-3
4.214860814E1,-1.904167235E-3
4.216549262E1,1.347780228E-3
4.218237181E1,4.777364433E-3
4.219926292E1,1.110263169E-3
4.221614158E1,5.031451583E-4
4.223302603E1,-8.320212364E-4
4.224990836E1,1.138195395E-3
4.226679304E1,1.330845058E-3
4.228367473E1,1.408137381E-3
4.230055513E1,-2.555809915E-3
4.231744071E1,-3.076180816E-3
4.233432440E1,8.236691356E-4
4.235121090E1,-4.428759217E-3
4.236809297E1,-3.495074809E-3
4.238497522E1,-1.135140657E-3
4.240186012E1,1.100443304E-3
4.241874181E1,3.196671605E-4
4.243562657E1,-1.502133906E-3
4.245250888E1,2.873688936E-5
4.246939039E1,2.878755331E-4
4.248627862E1,-9.579934180E-3
4.250315984E1,-4.145778716E-3
4.252004249E1,-3.552362323E-4
4.253692703E1,-1.586951315E-3
4.255380869E1,-1.782916486E-3
4.257069336E1,1.142337918E-3
4.258755614E1,-1.307122409E-3
4.260446488E1,-2.880044281E-3
4.262134230E1,-2.523511648E-4
4.263822571E1,-2.732440829E-3
4.265510632E1,2.710416913E-3
4.267199686E1,-5.190595984E-3
4.268887602E1,6.748139858E-4
4.270576006E1,9.312853217E-4
4.272264284E1,-1.374013722E-3
4.273952731E1,2.374090254E-3
4.275640514E1,2.912290394E-3
4.277329780E1,7.524862885E-4
4.279017615E1,2.719394863E-3
4.280704799E1,-1.062706113E-3
4.282394239E1,1.864731312E-4
4.284081195E1,1.537054777E-3
4.285770904E1,1.715101302E-3
4.287459388E1,3.404356539E-3
4.289147385E1,4.887655377E-3
4.290836309E1,3.985404968E-3
4.292525363E1,-8.817166090E-4
4.294212780E1,-6.762616336E-3
4.295900738E1,-2.423241735E-3
4.297589479E1,-1.137688756E-3
4.299277276E1,3.093548119E-3
4.300966087E1,-9.892359376E-4
4.302654292E1,-2.701982856E-3
4.304342752E1,7.007688284E-3
4.306030989E1,2.594374120E-3
4.307719452E1,-3.612488508E-4
4.309406487E1,1.447565854E-3
4.311096164E1,4.720017314E-3
4.312785087E1,2.307243645E-3
4.314472825E1,-2.237372100E-3
4.316161040E1,-1.681171358E-3
4.317848633E1,5.393967032E-3
4.319537678E1,-4.535757005E-3
4.321226129E1,9.737759829E-4
4.322914329E1,6.997659802E-4
4.324602781E1,2.906374633E-3
4.326291036E1,-8.309409022E-4
4.327979340E1,-1.354426146E-3
4.329666058E1,3.319457173E-4
4.331356464E1,-1.209549606E-3
4.333044378E1,-1.453690231E-3
4.334734241E1,5.468912423E-3
4.336421011E1,-1.561552286E-3
4.338109499E1,5.513824522E-3
4.339797720E1,3.297701478E-4
4.341486164E1,7.046833634E-4
4.343174359E1,-2.123162150E-3
4.344862826E1,3.514438868E-4
4.346551014E1,-2.802520990E-3
4.348239564E1,-1.512192190E-3
4.349927711E1,5.067884922E-4
4.351616178E1,1.873493195E-3
4.353304391E1,3.256723285E-3
4.354992913E1,1.169919968E-3
4.356681048E1,8.923634887E-4
4.358369557E1,1.910381019E-3
4.360056683E1,9.721145034E-4
4.361746223E1,-2.006627619E-3
4.363434618E1,5.620621145E-3
4.365122631E1,2.697005868E-3
4.366811094E1,1.151278615E-3
4.368499576E1,-2.120934427E-3
4.370187760E1,4.308708012E-3
4.371876197E1,-5.702078342E-4
4.373564427E1,1.547791064E-3
4.375252924E1,4.827030003E-3
4.376941036E1,1.290202141E-3
4.378629502E1,-2.233780921E-3
4.380317821E1,1.504495740E-4
4.382006248E1,5.681276321E-3
4.383694537E1,-4.259347916E-4
4.385381236E1,-1.316487789E-3
4.387071401E1,4.365622997E-3
4.388759592E1,-7.318630815E-4
4.390447750E1,-2.731405199E-3
4.392135929E1,-5.950033665E-5
4.393824779E1,1.511104405E-3
4.395512938E1,-5.834549665E-5
4.397201103E1,2.907514572E-4
4.398889270E1,-5.443900824E-3
4.400577027E1,-3.401681781E-3
4.402266280E1,-2.819150686E-4
4.403954259E1,-2.724833786E-3
4.405642854E1,-3.097511828E-3
4.407331396E1,-1.402571797E-4
4.409019628E1,1.361764967E-3
4.410707658E1,4.495278001E-3
4.412396290E1,6.133198738E-3
4.414083236E1,2.447627485E-3
4.415772928E1,2.935193479E-3
4.417459198E1,-2.187252045E-3
4.419148390E1,2.318836749E-3
4.420837840E1,1.882672310E-3
4.422525995E1,-1.074060798E-3
4.424214757E1,-2.671703696E-3
4.425902566E1,2.914361656E-3
4.427591160E1,2.004668117E-3
4.429279623E1,-3.291219473E-3
4.430967827E1,-1.736745238E-3
4.432655229E1,3.091394901E-4
4.434344533E1,-1.132354140E-3
4.436031376E1,-3.533810377E-3
4.437721454E1,1.369729638E-3
4.439409094E1,1.044780016E-3
4.441098380E1,-4.814349115E-3
4.442786203E1,1.771524549E-4
4.444474492E1,-7.707849145E-4
4.446162958E1,2.026557922E-3
4.447852210E1,-1.627251506E-3
4.449539350E1,6.290599704E-4
4.451227856E1,2.156406641E-3
4.452916307E1,-5.031153560E-4
4.454604534E1,-3.787726164E-4
4.456292576E1,8.789226413E-4
4.457981178E1,2.173058689E-3
4.459669446E1,-1.699030399E-3
4.461357062E1,-2.239510417E-3
4.463044355E1,2.849780023E-3
4.464734515E1,1.381166279E-3
4.466422594E1,-6.961375475E-4
4.468111220E1,-9.645670652E-4
4.469799682E1,1.841105521E-3
4.471487881E1,-6.625801325E-4
4.473176337E1,-2.186268568E-3
4.474864434E1,3.892704844E-3
4.476553020E1,6.569437683E-3
4.478241301E1,-1.110799611E-3
4.479929580E1,-2.187840641E-3
4.481617865E1,-1.188911498E-3
4.483306398E1,-2.242520452E-3
4.484994547E1,1.647680998E-3
4.486681370E1,-1.834079623E-3
4.488370726E1,-5.384162068E-4
4.490059249E1,8.216202259E-4
4.491747892E1,1.053541899E-3
4.493435979E1,2.837926149E-5
4.495124928E1,2.112120390E-3
4.496813037E1,2.508744597E-3
4.498501211E1,1.348413527E-3
4.500189703E1,2.399019897E-3
4.501877925E1,-3.924593329E-4
4.503566373E1,3.173209727E-3
4.505254618E1,2.614952624E-3
4.506942904E1,-4.135295749E-4
4.508631265E1,3.217332065E-3
4.510319714E1,-3.665760159E-4
4.512008932E1,2.003490925E-3
4.513696327E1,-2.793982625E-3
4.515384684E1,1.651704311E-3
4.517073067E1,1.323074102E-3
4.518760923E1,-5.490705371E-4
4.520449607E1,-2.962291241E-3
4.522137959E1,-2.170950174E-3
4.523826405E1,3.165856004E-3
4.525514275E1,1.775890589E-3
4.527203345E1,1.532830298E-3
4.528891281E1,1.632310450E-3
4.530579741E1,-2.601742744E-5
4.532265634E1,-4.313610494E-3
4.533956402E1,-2.237781882E-4
4.535644654E1,-1.307941973E-3
4.537331755E1,1.468658447E-3
4.539021126E1,1.912988722E-3
4.540709728E1,4.267148674E-3
4.542397947E1,2.318218350E-3
4.544085108E1,-5.062766373E-3
4.545774485E1,1.989193261E-3
4.547463058E1,4.161447287E-3
4.549151283E1,-2.402052283E-3
4.550839657E1,5.434915423E-3
4.552526635E1,3.659382463E-3
4.554216424E1,-1.865610480E-3
4.555904426E1,-2.602525055E-3
4.557593269E1,3.581307828E-3
4.559280017E1,4.542991519E-3
4.560969420E1,-4.803240299E-4
4.562658500E1,-1.209847629E-3
4.564346528E1,-1.526623964E-4
4.566034801E1,3.532320261E-5
4.567722757E1,1.869432628E-3
4.569411489E1,5.068086088E-3
4.571099768E1,3.769263625E-3
4.572787958E1,-2.306520939E-3
4.574476441E1,-1.365147531E-3
4.576164380E1,2.785935998E-3
4.577852248E1,2.290979028E-3
4.579541294E1,4.425495863E-4
4.581229785E1,8.232593536E-4
4.582916413E1,2.025298774E-3
4.584606452E1,3.400325775E-3
4.586294621E1,-4.479214549E-4
4.587983114E1,1.901991665E-3
4.589668985E1,2.212613821E-3
4.591360136E1,4.404857755E-4
4.593047967E1,1.973830163E-3
4.594736420E1,-7.542446256E-4
4.596424266E1,-1.099258661E-3
4.598111881E1,-1.089602709E-3
4.599801313E1,5.833670497E-3
4.601489757E1,2.886131406E-3
4.603178002E1,3.473863006E-3
4.604866468E1,6.668120623E-4
4.606554661E1,2.041459084E-4
4.608243138E1,-2.166233957E-3
4.609931189E1,-1.364074647E-3
4.611619814E1,-1.228295267E-3
4.613306666E1,-1.079812646E-4
4.614996487E1,2.897337079E-3
4.616683729E1,3.322392702E-3
4.618373147E1,3.451548517E-3
4.620062115E1,2.383381128E-3
4.621749650E1,-7.948726416E-4
4.623437897E1,-1.893445849E-3
4.625126593E1,2.604939044E-3
4.626814644E1,6.215356290E-3
4.628503083E1,2.659492195E-3
4.630191372E1,3.322079778E-3
4.631879549E1,-6.841123104E-4
4.633568242E1,-2.400726080E-3
4.635256449E1,2.541244030E-3
4.636944686E1,4.223138094E-4
4.638633163E1,5.888938904E-5
4.640319921E1,1.802466810E-3
4.642009669E1,-7.986649871E-4
4.643698026E1,-2.318672836E-3
4.645386482E1,4.384510219E-3
4.647074666E1,3.574781120E-3
4.648763136E1,-2.367809415E-3
4.650451249E1,-3.817752004E-4
4.652139918E1,1.670010388E-3
4.653827897E1,2.654343843E-4
4.655516465E1,-4.641778767E-3
4.657204726E1,-1.413375139E-5
4.658893166E1,1.780144870E-3
4.660581302E1,3.202177584E-3
4.662269846E1,-7.291063666E-4
4.663957707E1,7.455691695E-3
4.665646494E1,2.804175019E-3
4.667334996E1,3.348737955E-4
4.669023135E1,1.104012132E-3
4.670711367E1,9.535998106E-5
4.672399835E1,-5.036592484E-5
4.674086714E1,-8.331239223E-5
4.675776481E1,2.870142460E-3
4.677464702E1,-8.455216885E-4
4.679153155E1,1.529969275E-3
4.680841017E1,4.118390381E-3
4.682530123E1,3.232069314E-3
4.684218031E1,3.077171743E-3
4.685905423E1,2.966783941E-3
4.687594535E1,-3.946490586E-3
4.689283271E1,-9.753033519E-4
4.690971366E1,-1.639977098E-3
4.692658484E1,6.378360093E-3
4.694348039E1,2.300903201E-3
4.696036141E1,-1.259252429E-3
4.697725028E1,-4.741311073E-3
4.699413080E1,-1.234933734E-3
4.701101728E1,4.013776779E-4
4.702789818E1,-4.663914442E-4
4.704478037E1,3.368034959E-3
4.706166501E1,4.563271999E-3
4.707853987E1,1.133531332E-3
4.709543025E1,-5.056187510E-4
4.711231483E1,1.041263342E-3
4.712919835E1,1.285873353E-3
4.714608009E1,-4.499956965E-3
4.716296392E1,5.330964923E-4
4.717983658E1,6.995350122E-4
4.719672765E1,-1.496560872E-3
4.721361663E1,-8.280426264E-4
4.723049829E1,-7.840245962E-4
4.724737934E1,2.218261361E-3
4.726426502E1,-2.890601754E-4
4.728114710E1,2.226345241E-3
4.729803144E1,1.442842185E-3
4.731491387E1,-4.856511950E-4
4.733179839E1,1.033142209E-3
4.734868010E1,5.306899548E-4
4.736555347E1,-1.780927181E-3
4.738244676E1,3.675639629E-3
4.739933205E1,-2.552002668E-3
4.741621356E1,-2.342335880E-3
4.743309795E1,-2.358198166E-3
4.744998082E1,-1.311309636E-3
4.746686512E1,-5.178071558E-3
4.748374675E1,-2.914562821E-3
4.750061223E1,-2.583511174E-3
4.751751377E1,8.416555822E-3
4.753439518E1,1.579821110E-4
4.755128336E1,6.721988320E-4
4.756816354E1,7.734373212E-4
4.758504729E1,-2.058498561E-3
4.760192926E1,4.969760776E-4
4.761881351E1,-5.039341748E-3
4.763569823E1,-3.015100956E-3
4.765258034E1,4.348091781E-3
4.766946516E1,2.488210797E-3
4.768634696E1,3.959931433E-3
4.770323138E1,-5.990415812E-4
4.772011381E1,-2.336792648E-3
4.773699854E1,-1.455441117E-3
4.775388004E1,2.694174647E-3
4.777076495E1,-2.996519208E-3
4.778764488E1,-1.615919173E-3
4.780453391E1,4.348360002E-3
4.782141239E1,2.256982028E-3
4.783829577E1,-1.147292554E-3
4.785518229E1,1.358121634E-3
4.787206310E1,-1.222327352E-3
4.788894559E1,-3.950908780E-3
4.790582826E1,-6.101727486E-3
4.792271966E1,-4.667170346E-3
4.793959574E1,7.659420371E-4
4.795647735E1,1.541279256E-3
4.797336763E1,5.302131176E-4
4.799024711E1,-2.581000328E-3
4.800713200E1,1.022286713E-3
4.802401379E1,-1.287482679E-3
4.804088581E1,1.295700669E-3
4.805778052E1,5.747854710E-3
4.807466258E1,2.425096929E-3
4.809154193E1,-3.439113498E-4
4.810843130E1,1.478411257E-3
4.812531045E1,4.693225026E-3
4.814219861E1,-4.099652171E-3
4.815907720E1,-4.903942347E-3
4.817596776E1,7.856339216E-4
4.819284688E1,-5.113855004E-4
4.820973038E1,1.511879265E-3
4.822661348E1,1.091971993E-3
4.824350167E1,6.038919091E-4
4.826037684E1,2.747923136E-3
4.827726502E1,1.945719123E-3
4.829414386E1,1.885920763E-3
4.831103426E1,5.992427468E-4
4.832791366E1,-1.342490315E-3
4.834479837E1,4.220455885E-3
4.836168027E1,-1.917913556E-3
4.837856351E1,2.997465432E-3
4.839544672E1,1.953527331E-3
4.841232872E1,6.605163217E-4
4.842921660E1,4.671663046E-4
4.844609794E1,3.519281745E-4
4.846298063E1,-1.520134509E-3
4.847986494E1,-3.056392074E-3
4.849674520E1,-2.121575177E-3
4.851363460E1,8.981823921E-4
4.853051228E1,-4.376649857E-3
4.854739822E1,-3.480389714E-3
4.856427996E1,2.375647426E-3
4.858116211E1,-4.420459270E-3
4.859804708E1,1.616016030E-3
4.861493156E1,1.450970769E-3
4.863181334E1,-1.483306289E-3
4.864869794E1,-3.039292991E-3
4.866558181E1,8.041709661E-4
4.868246351E1,2.099573612E-4
4.869934680E1,-1.697547734E-3
4.871622800E1,-2.016231418E-3
4.873311677E1,2.042293549E-3
4.874999840E1,-1.293383539E-3
4.876688019E1,-1.837126911E-3
4.878376465E1,-2.931199968E-3
4.880064054E1,-1.995734870E-3
4.881753156E1,-3.055989742E-3
4.883441023E1,-4.370979965E-3
4.885130120E1,-3.355301917E-3
4.886817929E1,-2.744123340E-4
4.888506495E1,-3.870874643E-4
4.890194662E1,-1.522652805E-3
4.891883120E1,1.160912216E-3
4.893571373E1,1.609787345E-3
4.895259834E1,-2.265572548E-4
4.896948052E1,2.377927303E-4
4.898636456E1,-2.556942403E-3
4.900324676E1,-2.917774022E-3
4.902013147E1,1.053236425E-3
4.903700906E1,5.057677627E-4
4.905390076E1,5.118548870E-4
4.907077679E1,4.866197705E-4
4.908766801E1,-2.444922924E-3
4.910454685E1,-3.992766142E-5
4.912143114E1,3.085359931E-4
4.913829229E1,4.391036928E-3
4.915520152E1,9.230673313E-4
4.917207657E1,-2.452269197E-3
4.918896756E1,2.931021154E-3
4.920584351E1,-9.074807167E-4
4.922273419E1,3.179572523E-3
4.923961344E1,-3.135859966E-3
4.925649434E1,1.035243273E-3
4.927338340E1,-3.429487348E-3
4.929026472E1,-1.261010766E-4
4.930714639E1,-2.523809671E-4
4.932403096E1,2.354830503E-4
4.934090021E1,-3.547817469E-4
4.935779655E1,-1.609079540E-3
4.937467867E1,-7.107652724E-3
4.939155424E1,-4.585489631E-3
4.940844647E1,1.614272594E-3
4.942533150E1,-2.570882440E-3
4.944220992E1,-1.956231892E-3
4.945910087E1,1.059561968E-3
4.947596404E1,3.062561154E-4
4.949286463E1,3.138430417E-3
4.950974549E1,1.736812294E-3
4.952663296E1,-1.375839114E-3
4.954351281E1,-3.066509962E-3
4.956039815E1,7.675960660E-4
4.957727647E1,-2.746380866E-3
4.959416395E1,7.485151291E-4
4.961104971E1,5.932897329E-5
4.962793110E1,1.724265516E-3
4.964481302E1,4.219949245E-3
4.966169756E1,-2.450145781E-3
4.967856644E1,-2.335518599E-3
4.969547037E1,-2.283938229E-3
4.971233328E1,-3.433890641E-3
4.972923060E1,4.352703691E-4
4.974611302E1,1.045413315E-3
4.976299761E1,-7.183104753E-5
4.977987950E1,-3.493130207E-4
4.979676082E1,2.474069595E-3
4.981364959E1,1.103423536E-3
4.983053078E1,3.738716245E-3
4.984740148E1,-1.729451120E-3
4.986429746E1,-4.848182201E-3
4.988118018E1,-3.121353686E-3
4.989806414E1,-3.911368549E-3
4.991494595E1,-1.048848033E-3
4.993182738E1,-3.609813750E-3
4.994871631E1,-3.958292305E-3
4.996559746E1,-4.030779004E-3
4.998247658E1,-1.099057496E-3
4.999936179E1,-5.341529846E-3
5.001624613E1,-1.309402287E-3
5.003313092E1,-1.864060760E-3
5.005001256E1,-2.573572099E-3
5.006689725E1,1.570358872E-4
5.008377953E1,-2.269990742E-3
5.010066938E1,-5.537845194E-3
5.011754580E1,-4.214882851E-3
5.013442731E1,6.084144115E-5
5.015131584E1,-3.328286111E-3
5.016819754E1,2.291873097E-4
5.018507717E1,4.829287529E-3
5.020196563E1,-5.495533347E-3
5.021884608E1,-2.381838858E-3
5.023572911E1,-2.486199141E-3
5.025261359E1,-1.929469407E-3
5.026949784E1,4.644170403E-4
5.028637892E1,-2.064950764E-3
5.030326413E1,4.550814629E-4
5.032014433E1,-1.502312720E-3
5.033703038E1,5.650900304E-3
5.035391257E1,1.517184079E-3
5.037078433E1,-1.948677003E-3
5.038767890E1,-4.762232304E-3
5.040456371E1,-5.741722882E-3
5.042144597E1,-1.146346331E-4
5.043833004E1,-1.539617777E-3
5.045521247E1,-3.455944359E-3
5.047209370E1,-2.641633153E-3
5.048898231E1,-2.628766000E-3
5.050586342E1,5.111537874E-3
5.052274604E1,-2.866685390E-4
5.053963001E1,2.397470176E-3
5.055650914E1,-4.834726453E-3
5.057340020E1,1.033969223E-3
5.059027923E1,-2.056442201E-3
5.060716334E1,4.153549671E-4
5.062404601E1,7.683560252E-4
5.064092171E1,7.131174207E-4
5.065781206E1,-2.225384116E-3
5.067468367E1,3.145314753E-3
5.069157971E1,1.999162138E-3
5.070846057E1,-1.633137465E-3
5.072534827E1,1.260727644E-3
5.074221481E1,-6.047785282E-4
5.075910097E1,-9.989961982E-4
5.077599369E1,1.862086356E-3
5.079288179E1,-2.408266068E-3
5.080976322E1,5.650013685E-3
5.082664661E1,-7.100701332E-4
5.084353056E1,-3.856472671E-3
5.086041168E1,-3.228634596E-3
5.087729641E1,8.558183908E-4
5.089417779E1,-3.776609898E-3
5.091106415E1,-4.483573139E-3
5.092794535E1,-2.718992531E-3
5.094482649E1,-4.164844751E-3
5.096171540E1,-6.143875420E-3
5.097859680E1,-1.753509045E-3
5.099547840E1,-1.989305019E-6
5.101236294E1,3.279626369E-3
5.102923724E1,-3.511011600E-4
5.104611697E1,-3.820098937E-3
5.106300864E1,-5.438163877E-3
5.107988603E1,-4.559181631E-3
5.109677529E1,-3.287024796E-3
5.111366638E1,-4.241861403E-3
5.113054475E1,-4.346862435E-3
5.114742824E1,-4.930242896E-3
5.116431152E1,-1.479856670E-3
5.118118315E1,1.543536782E-4
5.119807567E1,-7.568523288E-4
5.121496488E1,8.664056659E-4
5.123184515E1,3.884285688E-4
5.124872952E1,-4.885472357E-3
5.126561135E1,-6.040930748E-4
5.128249611E1,-2.932846546E-3
5.129937838E1,-1.505792141E-3
5.131626279E1,-1.776963472E-4
5.133314426E1,-4.001051188E-3
5.135002936E1,-1.582071185E-3
5.136691150E1,-5.353190005E-3
5.138379596E1,-5.875386298E-3
5.140066897E1,-1.066415012E-2
5.141756289E1,-8.415117860E-3
5.143444150E1,-1.108370721E-3
5.145133024E1,-1.060478389E-3
5.146821226E1,-2.813376486E-3
5.148509570E1,-7.143288851E-3
5.150197787E1,-9.200870991E-4
5.151886256E1,4.074200988E-3
5.153574382E1,6.926506758E-4
5.155262937E1,-2.700559795E-3
5.156951109E1,-3.085769713E-3
5.158639589E1,1.573607326E-3
5.160327749E1,-2.444542944E-3
5.162016175E1,-1.413822174E-4
5.163704527E1,1.484975219E-4
5.165392845E1,-2.736248076E-3
5.167081123E1,9.118616581E-4
5.168769203E1,1.531809568E-3
5.170457431E1,-2.466060221E-3
5.172146482E1,-4.271835089E-3
5.173833104E1,-2.768464386E-3
5.175522548E1,-1.372098923E-3
5.177211407E1,-1.088254154E-3
5.178899440E1,1.111179590E-4
5.180587750E1,2.187192440E-4
5.182276206E1,2.279281616E-4
5.183964426E1,2.134293318E-4
5.185652575E1,-8.863881230E-4
5.187341078E1,-7.006272674E-3
5.189029778E1,-6.183184683E-3
5.190717790E1,-5.513191223E-3
5.192406202E1,-1.852758229E-3
5.194093072E1,-7.092252374E-3
5.195783630E1,-2.108164132E-3
5.197470860E1,1.557722688E-3
5.199159144E1,-3.688618541E-3
5.200848121E1,-3.435835242E-4
5.202534718E1,8.214265108E-5
5.204224394E1,-1.045405865E-3
5.205912850E1,2.831064165E-3
5.207602337E1,-3.471769392E-3
5.209288192E1,-4.444375634E-3
5.210977578E1,-2.864211798E-3
5.212666040E1,-3.568157554E-4
5.214354345E1,-6.908901036E-3
5.216042482E1,-4.888243973E-3
5.217731230E1,1.286223531E-3
5.219419160E1,-2.406358719E-3
5.221107537E1,1.761339605E-3
5.222796573E1,-4.505515099E-4
5.224484368E1,4.225373268E-4
5.226172827E1,-4.609584808E-3
5.227859714E1,-1.227356493E-3
5.229549413E1,-2.425007522E-3
5.231237697E1,2.871006727E-4
5.232925576E1,-4.600010812E-3
5.234614336E1,-2.437464893E-3
5.236302452E1,2.004221082E-3
5.237991312E1,-3.112040460E-3
5.239678922E1,1.161694527E-4
5.241367641E1,-2.222843468E-3
5.243055963E1,1.399114728E-3
5.244744308E1,-2.115868032E-3
5.246432807E1,3.226742148E-3
5.248120938E1,5.138576031E-3
5.249809303E1,3.086984158E-3
5.251497628E1,-3.019519150E-3
5.253186108E1,9.457767010E-5
5.254874282E1,-1.231893897E-3
5.256562740E1,-7.455125451E-4
5.258250987E1,-2.373769879E-3
5.259938098E1,-2.743363380E-3
5.261627573E1,7.726252079E-5
5.263316080E1,-3.505021334E-3
5.265004313E1,-1.041993499E-3
5.266692746E1,4.860609770E-4
5.268380899E1,-5.137823522E-3
5.270069124E1,-1.290023327E-3
5.271757606E1,-7.202640176E-3
5.273445753E1,-2.208329737E-3
5.275134582E1,-3.740742803E-3
5.276822697E1,1.217350364E-4
5.278510934E1,7.331743836E-4
5.280199441E1,-4.280179739E-3
5.281887436E1,1.167938113E-3
5.283576006E1,-2.011917531E-3
5.285264262E1,-3.594771028E-3
5.286952715E1,1.941375434E-3
5.288640880E1,-5.932889879E-3
5.290329336E1,-4.161462188E-3
5.292017322E1,-2.074770629E-3
5.293706110E1,-5.334816873E-3
5.295394236E1,-2.253621817E-3
5.297082672E1,5.243793130E-4
5.298770752E1,1.020565629E-3
5.300459490E1,-1.415610313E-5
5.302147254E1,-2.942383289E-4
5.303835002E1,1.833267510E-3
5.305523927E1,3.988005221E-3
5.307212977E1,-5.647622049E-3
5.308900835E1,-2.984285355E-3
5.310589308E1,-8.061155677E-4
5.312277559E1,-3.351539373E-3
5.313965863E1,3.317035735E-3
5.315651782E1,-7.329009473E-3
5.317342953E1,-1.907795668E-4
5.319030855E1,-9.096935391E-4
5.320719320E1,5.499310791E-3
5.322407638E1,1.833841205E-3
5.324095283E1,1.646056771E-4
5.325784037E1,-1.061409712E-4
5.327472613E1,-5.944289267E-3
5.329159484E1,-1.823306084E-4
5.330849267E1,1.080885530E-3
5.332537291E1,-1.620233059E-3
5.334226200E1,-1.399576664E-3
5.335914001E1,3.209561110E-3
5.337602762E1,-6.102398038E-4
5.339290480E1,-1.252964139E-4
5.340979589E1,1.072905958E-3
5.342667309E1,1.233242452E-3
5.344355929E1,1.286841929E-3
5.346044006E1,2.502799034E-3
5.347732599E1,1.513659954E-3
5.349420762E1,2.079233527E-4
5.351109231E1,-4.008591175E-3
5.352797456E1,6.240680814E-4
5.354485910E1,1.341335475E-3
5.356173993E1,-1.443214715E-3
5.357861337E1,4.801154137E-5
5.359550757E1,-2.683766186E-3
5.361239238E1,-8.991889656E-3
5.362927398E1,1.681737602E-3
5.364615827E1,-2.501882613E-3
5.366303100E1,-6.062895060E-3
5.367992551E1,2.194792032E-3
5.369680431E1,-1.235410571E-3
5.371369482E1,7.122755051E-6
5.373056144E1,2.345904708E-3
5.374745862E1,1.609526575E-3
5.376434034E1,3.300748765E-3
5.378122391E1,-2.258218825E-3
5.379810747E1,-3.066711128E-3
5.381499206E1,-3.108464181E-3
5.383187380E1,-1.212432981E-4
5.384875817E1,1.431524754E-3
5.386562745E1,-1.320198178E-3
5.388252546E1,-1.078099012E-5
5.389940528E1,-5.188807845E-4
5.391627926E1,-2.925977111E-3
5.393317360E1,-2.742931247E-4
5.395005838E1,-5.690842867E-3
5.396693844E1,4.470497370E-4
5.398382488E1,-1.512378454E-3
5.400069606E1,-4.849582911E-5
5.401759180E1,2.425566316E-3
5.403446994E1,-1.173466444E-3
5.405136142E1,1.220867038E-3
5.406824029E1,-3.143407404E-3
5.408512463E1,3.851816058E-3
5.410200630E1,-9.095296264E-4
5.411887826E1,1.215510070E-3
5.413577324E1,3.402605653E-4
5.415265751E1,2.948641777E-4
5.416954021E1,-2.711467445E-3
5.418642408E1,-3.029108047E-4
5.420330660E1,5.283206701E-5
5.422018967E1,-2.773396671E-3
5.423707289E1,-3.168813884E-3
5.425395434E1,-7.249400020E-3
5.427084510E1,-2.637967467E-3
5.428772066E1,-3.043785691E-3
5.430460582E1,-4.802919924E-3
5.432148732E1,-2.172239125E-3
5.433836559E1,4.045277834E-3
5.435524443E1,6.089597940E-3
5.437213913E1,-3.516271710E-3
5.438902031E1,-7.194124162E-3
5.440590931E1,3.436580300E-4
5.442279050E1,3.781840205E-4
5.443967227E1,-1.669429243E-3
5.445655380E1,-4.055388272E-3
5.447344195E1,3.669954836E-3
5.449032404E1,7.599964738E-4
5.450720849E1,-2.665020525E-3
5.452409051E1,-4.321470857E-3
5.454095926E1,1.791372895E-3
5.455786313E1,2.685189247E-3
5.457473704E1,-1.253560185E-3
5.459162166E1,1.105062664E-3
5.460850744E1,2.568826079E-3
5.462539614E1,-2.519302070E-3
5.464227195E1,-3.183729947E-3
5.465915313E1,-3.910809755E-4
5.467603095E1,-1.666940749E-3
5.469291042E1,-1.838654280E-3
5.470980483E1,2.165913582E-3
5.472668518E1,2.849347889E-3
5.474357507E1,-3.305643797E-3
5.476044244E1,3.848448396E-3
5.477733935E1,-9.240806103E-4
5.479422229E1,4.180043936E-3
5.481110536E1,-9.443536401E-4
5.482798956E1,6.057322025E-5
5.484487139E1,1.326203346E-3
5.486175618E1,3.609657288E-4
5.487862605E1,2.414144576E-3
5.489552276E1,-1.344136894E-3
5.491239169E1,-3.011964262E-3
5.492928750E1,1.898482442E-3
5.494617126E1,-3.504231572E-4
5.496305595E1,-1.784898341E-3
5.497993757E1,7.912293077E-4
5.499681066E1,6.259605289E-4
5.501370470E1,-2.837061882E-3
5.503058922E1,-5.104362965E-3
5.504747078E1,3.286346793E-3
5.506434263E1,-2.341367304E-3
5.508123778E1,-3.029853106E-4
5.509812261E1,1.121982932E-3
5.511500355E1,-1.794703305E-3
5.513188650E1,-2.150662243E-3
5.514877082E1,-4.778504372E-4
5.516565534E1,2.782799304E-3
5.518253980E1,-1.466192305E-3
5.519941935E1,7.425770164E-4
5.521630165E1,-1.854062080E-3
5.523319115E1,-7.709048688E-3
5.525006906E1,-1.225948334E-3
5.526695501E1,-3.188021481E-3
5.528381810E1,6.039738655E-4
5.530070866E1,-4.037342966E-3
5.531760355E1,-6.979480386E-4
5.533448523E1,2.057649195E-3
5.535137343E1,2.318620682E-4
5.536825493E1,5.065530539E-3
5.538513693E1,1.721084118E-3
5.540202145E1,3.024779260E-3
5.541890355E1,-1.510158181E-3
5.543578791E1,-3.298744559E-4
5.545267009E1,9.490549564E-4
5.546955441E1,-6.315112114E-5
5.548643654E1,-5.362160504E-3
5.550332152E1,-3.808200359E-3
5.552020291E1,2.179399133E-3
5.553708749E1,-2.716340125E-3
5.555398274E1,-3.425344825E-3
5.557085314E1,3.516770899E-3
5.558773612E1,-1.242607832E-4
5.560462063E1,-1.188747585E-3
5.562150621E1,-5.416408181E-3
5.563837123E1,-3.642857075E-3
5.565526919E1,-1.629866660E-3
5.567215389E1,-2.108365297E-4
5.568903638E1,-2.880096436E-3
5.570592057E1,-3.857612610E-4
5.572280265E1,-2.893947065E-3
5.573968708E1,-6.208077073E-3
5.575656619E1,-3.746859729E-3
5.577345703E1,-3.258585930E-4
5.579032432E1,-2.869218588E-3
5.580722028E1,-4.931293428E-3
5.582410243E1,5.181282759E-4
5.584097405E1,-1.538470387E-3
5.585786888E1,-5.874678493E-3
5.587474312E1,-3.626450896E-3
5.589162256E1,-4.432894289E-3
5.590851734E1,-3.377936780E-3
5.592540174E1,8.123293519E-4
5.594228919E1,3.743015230E-3
5.595915615E1,-4.000872374E-3
5.597605330E1,-4.234611988E-4
5.599293505E1,-2.829603851E-3
5.600981943E1,1.541592181E-3
5.602670268E1,4.439003766E-3
5.604358788E1,-1.037195325E-3
5.606046569E1,-1.822315156E-3
5.607735190E1,9.541511536E-4
5.609423497E1,-4.432000220E-3
5.611111956E1,-3.478877246E-3
5.612800139E1,-2.163037658E-3
5.614487565E1,-3.070376813E-3
5.616175502E1,8.211284876E-4
5.617864000E1,1.441143453E-3
5.619553443E1,2.689711750E-3
5.621242039E1,-3.523670137E-3
5.622930006E1,6.701275706E-4
5.624618590E1,-2.710253000E-3
5.626306725E1,-2.522110939E-3
5.627995251E1,-7.320754230E-3
5.629683505E1,-2.761602402E-3
5.631371841E1,-3.184810281E-3
5.633060096E1,7.294490933E-4
5.634748534E1,2.235770226E-4
5.636436755E1,3.038391471E-3
5.638125240E1,4.623875022E-3
5.639813261E1,-5.105167627E-3
5.641501851E1,-2.470731735E-3
5.643190063E1,-2.092614770E-3
5.644878522E1,-4.317231476E-3
5.646566706E1,-6.389886141E-3
5.648255170E1,-6.662324071E-3
5.649943398E1,-5.628690124E-3
5.651631335E1,-7.721409202E-4
5.653320522E1,-4.298985004E-6
5.655008479E1,-1.493789256E-3
5.656696717E1,2.287633717E-3
5.658385117E1,5.175769329E-4
5.660072060E1,-1.493506134E-3
5.661761810E1,-2.852231264E-3
5.663450145E1,-1.686438918E-4
5.665137793E1,1.128808409E-2
5.666826286E1,6.652623415E-5
5.668515460E1,1.534372568E-4
5.670203342E1,-2.765886486E-3
5.671891646E1,-3.117188811E-3
5.673579959E1,-4.329785705E-3
5.675268411E1,1.314282417E-3
5.676956639E1,-1.318007708E-3
5.678645119E1,-1.743853092E-3
5.680333327E1,-1.719661057E-3
5.682021731E1,-6.079003215E-4
5.683709947E1,2.410851419E-3
5.685398406E1,6.312206388E-4
5.687086090E1,-4.362076521E-3
5.688775877E1,-2.693504095E-3
5.690462430E1,-3.051735461E-3
5.692151769E1,2.707928419E-3
5.693840009E1,-4.466027021E-4
5.695528720E1,3.207683563E-3
5.697216235E1,-5.079403520E-3
5.698904693E1,-3.412455320E-3
5.700593545E1,-4.304155707E-3
5.702281568E1,-5.092747509E-3
5.703969843E1,6.150305271E-4
5.705658048E1,1.458764076E-3
5.707346842E1,-2.534896135E-3
5.709034971E1,-3.140583634E-3
5.710723203E1,-2.644248307E-3
5.712411654E1,1.481518149E-3
5.714098534E1,-5.529612303E-3
5.715788667E1,-8.503794670E-4
5.717476604E1,4.026398063E-3
5.719164605E1,-6.195902824E-5
5.720853458E1,-4.680089653E-3
5.722540423E1,-6.473280489E-3
5.724228727E1,-7.736906409E-3
5.725917964E1,-3.849677742E-3
5.727606767E1,-3.110840917E-4
5.729294894E1,-9.864866734E-4
5.730983167E1,1.223586500E-3
5.732671609E1,1.581162214E-3
5.734359760E1,5.239248276E-4
5.736048096E1,-2.524241805E-3
5.737736488E1,-3.054820001E-3
5.739424807E1,-2.199113369E-4
5.741113158E1,-1.540675759E-3
5.742801539E1,-2.843119204E-3
5.744489785E1,-4.191763699E-3
5.746178242E1,-5.000725389E-3
5.747865090E1,-3.304317594E-3
5.749554857E1,-4.150211811E-3
5.751241790E1,-3.159299493E-3
5.752931505E1,3.897890449E-3
5.754619694E1,-8.872747421E-4
5.756308201E1,-2.661287785E-3
5.757996386E1,1.095585525E-3
5.759683528E1,1.645348966E-3
5.761372966E1,-3.478705883E-3
5.763061506E1,-1.940853894E-3
5.764749688E1,1.239694655E-3
5.766436674E1,-6.905384362E-3
5.768126351E1,-2.227127552E-3
5.769814775E1,-1.547254622E-3
5.771502993E1,2.106577158E-3
5.773191467E1,-2.289265394E-4
5.774879640E1,1.661658287E-3
5.776568086E1,-3.207445145E-3
5.778256353E1,-1.690357924E-3
5.779944781E1,2.675265074E-3
5.781632993E1,5.129404366E-3
5.783321359E1,2.507023513E-3
5.785009644E1,2.315558493E-3
5.786697852E1,-6.155893207E-4
5.788386362E1,1.887403429E-3
5.790073413E1,-4.631280899E-3
5.791762944E1,1.953616738E-4
5.793451368E1,-1.857757568E-3
5.795138392E1,1.898646355E-3
5.796828055E1,1.353174448E-3
5.798516260E1,1.242689788E-3
5.800204755E1,2.391874790E-3
5.801892890E1,-1.512676477E-3
5.803581341E1,-2.809539437E-3
5.805269536E1,2.391636372E-3
5.806958072E1,1.215524971E-3
5.808646193E1,2.178236842E-3
5.810334677E1,3.393739462E-5
5.812022873E1,-2.035334706E-3
5.813711355E1,-3.499522805E-3
5.815399868E1,4.234462976E-4
5.817086339E1,2.018555999E-3
5.818776062E1,2.304710448E-3
5.820464664E1,-1.731358469E-3
5.822152828E1,2.884604037E-3
5.823841281E1,5.333490670E-3
5.825529456E1,-5.515664816E-5
5.827217986E1,-9.008198977E-4
5.828906407E1,-2.124331892E-3
5.830594330E1,6.390959024E-4
5.832282837E1,-2.866759896E-3
5.833971268E1,5.735605955E-4
5.835659124E1,1.135088503E-3
5.837348180E1,-1.721076667E-3
5.839036143E1,-2.164095640E-3
5.840724579E1,-2.241827548E-3
5.842412797E1,3.620706499E-3
5.844100092E1,2.743795514E-3
5.845789188E1,-2.602048218E-3
5.847479356E1,-6.384782493E-3
5.849166065E1,-2.940297127E-4
5.850854362E1,9.667202830E-4
5.852542452E1,7.226467133E-4
5.854231487E1,-6.879642606E-4
5.855918412E1,1.945801079E-3
5.857607787E1,-5.341172218E-4
5.859295800E1,-2.016104758E-3
5.860984778E1,-2.256795764E-3
5.862671357E1,-2.252332866E-3
5.864361181E1,-2.218179405E-3
5.866049356E1,6.861761212E-4
5.867737810E1,2.451241016E-5
5.869425551E1,-4.692256451E-3
5.871114879E1,-1.375630498E-3
5.872802698E1,-2.020597458E-3
5.874491115E1,-9.445771575E-4
5.876178005E1,1.080885530E-3
5.877866466E1,1.454122365E-3
5.879556156E1,1.477792859E-3
5.881244415E1,1.361377537E-3
5.882932505E1,1.392304897E-3
5.884620898E1,1.472897828E-3
5.886308120E1,-6.112456322E-3
5.887997743E1,-1.382358372E-3
5.889685457E1,1.094445586E-3
5.891374688E1,2.636268735E-3
5.893062592E1,-7.409602404E-5
5.894751047E1,-4.990100861E-4
5.896439231E1,-1.811482012E-3
5.898127701E1,-2.004802227E-3
5.899815899E1,-9.094849229E-4
5.901504324E1,-4.758447409E-3
5.903192554E1,-6.485030055E-3
5.904880985E1,3.224387765E-4
5.906569085E1,4.336670041E-3
5.908257744E1,2.525590360E-3
5.909945878E1,1.736171544E-3
5.911634030E1,-1.368023455E-3
5.913322545E1,2.158559859E-3
5.915011076E1,-2.504825592E-3
5.916699129E1,8.359476924E-4
5.918387627E1,-1.593060791E-3
5.920074526E1,8.957609534E-4
5.921764143E1,-1.707181334E-3
5.923452457E1,7.648691535E-4
5.925140903E1,-6.010830402E-4
5.926829122E1,-4.970379174E-3
5.928517619E1,3.352314234E-4
5.930205784E1,3.339201212E-3
5.931894219E1,-4.273407161E-3
5.933582116E1,-4.738509655E-3
5.935271237E1,4.414997995E-3
5.936959056E1,-2.974428236E-3
5.938647204E1,1.836076379E-3
5.940336060E1,-2.860054374E-4
5.942023922E1,3.467284143E-3
5.943712712E1,-4.047669470E-3
5.945400830E1,-2.180308104E-3
5.947088928E1,-1.873828471E-3
5.948777780E1,-6.174966693E-4
5.950465469E1,-4.517413676E-3
5.952154157E1,1.656331122E-3
5.953842220E1,2.517275512E-3
5.955530826E1,-8.199699223E-3
5.957218990E1,-4.694610834E-3
5.958907456E1,-2.337701619E-3
5.960595675E1,-9.234324098E-4
5.962284152E1,-6.237775087E-4
5.963972297E1,-6.165504456E-4
5.965660452E1,-1.822963357E-3
5.967349312E1,2.085380256E-3
5.969037121E1,4.423543811E-3
5.970725926E1,-2.771824598E-3
5.972413789E1,1.943171024E-3
5.974101277E1,3.224618733E-3
5.975789444E1,2.656221390E-3
5.977478615E1,9.959414601E-4
5.979167451E1,-3.779977560E-4
5.980855814E1,-3.482758999E-3
5.982542759E1,8.200928569E-4
5.984232234E1,2.566054463E-3
5.985920365E1,-4.314482212E-4
5.987608556E1,-4.599645734E-3
5.989296137E1,-4.148215055E-3
5.990985520E1,-1.001752913E-3
5.992674062E1,2.410866320E-3
5.994362199E1,6.293646991E-3
5.996050672E1,-5.624815822E-4
5.997738740E1,1.290477812E-3
5.999427061E1,-1.370310783E-4
6.001115744E1,7.439851761E-4
6.002803974E1,-2.290830016E-4
6.004492101E1,3.257215023E-3
6.006180630E1,1.741647720E-4
6.007867540E1,-1.451626420E-3
6.009557270E1,2.385228872E-3
6.011245408E1,-1.021720469E-3
6.012934673E1,-2.656966448E-3
6.014622106E1,-6.089881063E-4
6.016310585E1,2.587072551E-3
6.017997445E1,-1.103043556E-3
6.019686274E1,1.420840621E-3
6.021375766E1,2.899944782E-3
6.023063878E1,-2.793103456E-3
6.024752058E1,2.272926271E-3
6.026440512E1,-1.056604087E-3
6.028128756E1,-1.480124891E-3
6.029817082E1,2.523966134E-3
6.031505350E1,1.908332109E-3
6.033193821E1,-3.988333046E-3
6.034881380E1,3.865584731E-4
6.036570467E1,-1.771450043E-4
6.038258723E1,-3.263279796E-4
6.039945852E1,5.518369377E-3
6.041635032E1,6.258711219E-4
6.043324024E1,2.573601902E-3
6.045012093E1,1.725852489E-4
6.046700435E1,1.552358270E-3
6.048388659E1,-3.115236759E-4
6.050075803E1,5.567356944E-3
6.051765273E1,2.318330109E-3
6.053453747E1,4.773221910E-3
6.055141959E1,-3.545820713E-3
6.056830409E1,-1.916334033E-3
6.058518629E1,-1.638419926E-3
6.060207048E1,-5.397796631E-4
6.061895135E1,-1.574277878E-3
6.063583712E1,-1.792311668E-3
6.065271897E1,-1.787401736E-3
6.066960338E1,3.372348845E-3
6.068648522E1,-1.157574356E-3
6.070337070E1,-4.593275487E-3
6.072025181E1,-1.174017787E-3
6.073713147E1,-3.509834409E-3
6.075402141E1,2.013407648E-3
6.077089659E1,5.417913198E-4
6.078778503E1,1.328043640E-3
6.080466963E1,-3.867968917E-4
6.082154884E1,2.163231373E-3
6.083843945E1,-1.280210912E-3
6.085531802E1,-6.015226245E-4
6.087220252E1,-8.791983128E-4
6.088908476E1,-1.661352813E-3
6.090596947E1,1.209683716E-3
6.092285123E1,2.788737416E-3
6.093973426E1,-3.928102553E-3
6.095661821E1,-9.125396609E-4
6.097348921E1,-1.612551510E-3
6.099038410E1,1.999311149E-3
6.100726762E1,-2.960018814E-3
6.102414775E1,8.813962340E-4
6.104104040E1,2.758480608E-3
6.105791337E1,4.190005362E-3
6.107480344E1,1.448735595E-3
6.109168383E1,5.808942020E-3
6.110856837E1,7.781729102E-3
6.112544492E1,-3.901369870E-3
6.114233982E1,-2.164900303E-3
6.115919570E1,-8.058547974E-5
6.117610143E1,2.576507628E-3
6.119298293E1,-3.430992365E-5
6.120986477E1,-5.629695952E-3
6.122675497E1,-5.298957229E-3
6.124363460E1,-2.352468669E-3
6.126051492E1,-1.824267209E-3
6.127740066E1,2.273865044E-3
6.129427961E1,2.916336060E-3
6.131117099E1,1.105740666E-4
6.132804789E1,2.522766590E-3
6.134493374E1,2.915412188E-3
6.136180654E1,-1.114092767E-3
6.137868761E1,8.096471429E-4
6.139557044E1,1.173652709E-3
6.141246661E1,-4.281029105E-3
6.142934912E1,-2.101257443E-3
6.144623337E1,-6.723180413E-4
6.146310581E1,-1.613326371E-3
6.148000003E1,2.327159047E-3
6.149688205E1,5.851946771E-3
6.151376321E1,6.063431501E-4
6.153063861E1,4.057899117E-3
6.154753279E1,-2.096891403E-3
6.156441530E1,-1.729205251E-4
6.158129841E1,1.288086176E-3
6.159817123E1,-2.182506025E-3
6.161506586E1,-4.757314920E-3
6.163194813E1,-1.071929932E-3
6.164883134E1,2.371668816E-3
6.166571431E1,-2.372138202E-3
6.168259907E1,-1.862011850E-3
6.169948109E1,3.597736359E-3
6.171636562E1,4.711925983E-3
6.173324730E1,-2.660453320E-3
6.175013187E1,-3.158494830E-3
6.176701434E1,-3.250375390E-3
6.178389890E1,-3.279328346E-3
6.180076738E1,8.012950420E-4
6.181766495E1,1.173257828E-3
6.183454699E1,3.915578127E-3
6.185143230E1,-4.901878536E-3
6.186831326E1,1.898944378E-3
6.188519801E1,2.892583609E-3
6.190208030E1,-2.820849419E-3
6.191896467E1,1.048497856E-3
6.193584660E1,5.652450025E-3
6.195273121E1,4.479564726E-3
6.196960862E1,8.768439293E-4
6.198650084E1,-2.865567803E-4
6.200337947E1,2.476155758E-3
6.202026405E1,-5.790591240E-5
6.203713288E1,1.004569232E-3
6.205403068E1,-3.198660910E-3
6.207091227E1,-2.065740526E-3
6.208779264E1,1.004830003E-3
6.210468368E1,5.131721497E-3
6.212156372E1,4.192784429E-3
6.213844529E1,3.476664424E-4
6.215532669E1,-1.447491348E-3
6.217221529E1,6.372459233E-3
6.218909723E1,5.524978042E-4
6.220597835E1,-1.431800425E-3
6.222286137E1,-1.707158983E-3
6.223974661E1,2.380654216E-3
6.225662744E1,-1.164525747E-5
6.227351467E1,-1.518346369E-3
6.229039457E1,2.387605608E-3
6.230727806E1,-2.945616841E-3
6.232416262E1,-1.873999834E-3
6.234103146E1,-1.743666828E-3
6.235792885E1,1.128189266E-3
6.237481357E1,-1.854524016E-4
6.239168969E1,-1.495487988E-3
6.240858047E1,1.299604774E-3
6.242544899E1,3.414623439E-3
6.244234423E1,-3.901228309E-3
6.245922588E1,8.661225438E-4
6.247610813E1,2.637431026E-3
6.249298680E1,4.121787846E-3
6.250987719E1,3.005713224E-4
6.252676184E1,-1.390174031E-3
6.254364548E1,-2.955645323E-5
6.256051694E1,-2.970770001E-4
6.257740995E1,-5.601026118E-3
6.259429064E1,-3.434926271E-3
6.261117920E1,9.732097387E-4
6.262804798E1,2.791874111E-3
6.264494313E1,2.980388701E-3
6.266182754E1,-1.012079418E-3
6.267869796E1,1.225933433E-3
6.269559372E1,-2.326890826E-4
6.271247607E1,2.443514764E-3
6.272934504E1,1.687124372E-3
6.274624560E1,4.513226449E-3
6.276312707E1,-9.796172380E-4
6.278000894E1,4.010960460E-3
6.279689405E1,1.870580018E-3
6.281377551E1,2.697594464E-3
6.283065982E1,2.838052809E-3
6.284754188E1,-4.093028605E-3
6.286441700E1,7.643930614E-3
6.288130836E1,-4.542917013E-4
6.289819268E1,1.941628754E-3
6.291507490E1,-4.596263170E-5
6.293195962E1,-1.516006887E-3
6.294884116E1,-4.811927676E-3
6.296572580E1,2.872809768E-3
6.298260777E1,1.796528697E-3
6.299949266E1,-1.323297620E-4
6.301637171E1,-4.507750273E-4
6.303326157E1,2.548553050E-3
6.305014089E1,3.943748772E-3
6.306702550E1,2.149939537E-4
6.308390737E1,2.284310758E-3
6.310077858E1,5.836702883E-3
6.311767262E1,6.061270833E-4
6.313455861E1,-1.305669546E-3
6.315143996E1,3.859549761E-4
6.316832201E1,2.009667456E-3
6.318521022E1,1.785963774E-3
6.320209161E1,1.961663365E-3
6.321897323E1,1.651644707E-4
6.323585442E1,1.806661487E-3
6.325274300E1,-8.602738380E-4
6.326962436E1,-2.473235130E-3
6.328650522E1,2.935081720E-4
6.330339118E1,-4.025004804E-3
6.332027318E1,7.788762450E-4
6.333715756E1,1.134574413E-4
6.335403472E1,-4.016816616E-3
6.337092489E1,-1.641660929E-3
6.338780915E1,-7.981806993E-5
6.340469019E1,6.002590060E-3
6.342156900E1,9.428635240E-4
6.343845835E1,2.229213715E-4
6.345533896E1,4.692874849E-3
6.347222322E1,7.191896439E-4
6.348910207E1,1.886270940E-3
6.350597942E1,6.087578833E-3
6.352287184E1,7.648393512E-4
6.353975626E1,-2.199724317E-3
6.355663901E1,-3.358721733E-3
6.357352552E1,-7.730945945E-4
6.359040473E1,-4.806883633E-3
6.360728908E1,-2.175159752E-3
6.362415888E1,1.015357673E-3
6.364105584E1,2.838969231E-4
6.365793802E1,5.964964628E-3
6.367482200E1,6.883874536E-3
6.369170767E1,2.965219319E-3
6.370858861E1,2.282984555E-3
6.372547044E1,1.557908952E-3
6.374235173E1,-4.909679294E-3
6.375923865E1,-7.673501968E-4
6.377612103E1,-1.386180520E-3
6.379300385E1,-1.321978867E-3
6.380988788E1,-2.478405833E-3
6.382675455E1,2.460189164E-3
6.384365444E1,3.129765391E-4
6.386051907E1,4.702247679E-3
6.387742106E1,5.229093134E-3
6.389430137E1,-1.125767827E-3
6.391118840E1,-3.183469176E-3
6.392807507E1,-1.000240445E-4
6.394495376E1,-4.165425897E-3
6.396183609E1,1.029327512E-3
6.397870832E1,1.885600388E-3
6.399558756E1,3.204584122E-3
6.401248972E1,-6.973221898E-4
6.402936891E1,-1.261629164E-3
6.404625302E1,-2.512179315E-3
6.406313006E1,2.007491887E-3
6.408001843E1,-8.945614100E-4
6.409690135E1,-1.258507371E-3
6.411378579E1,-4.632927477E-3
6.413066820E1,2.170063555E-3
6.414755265E1,4.948407412E-3
6.416443457E1,3.597557545E-3
6.418131901E1,-1.885175705E-3
6.419820118E1,1.321427524E-3
6.421508597E1,1.411885023E-3
6.423196734E1,2.908706665E-5
6.424884650E1,-1.713968813E-3
6.426572618E1,-1.686483622E-3
6.428261905E1,-3.379590809E-3
6.429950026E1,1.971803606E-3
6.431638688E1,1.814104617E-3
6.433326443E1,1.802690327E-3
6.435015203E1,4.731237888E-3
6.436703222E1,2.108663321E-3
6.438391883E1,-1.168452203E-3
6.440078725E1,-3.477618098E-3
6.441768438E1,-2.063959837E-3
6.443456609E1,-4.739485681E-3
6.445145062E1,-3.981456161E-3
6.446833283E1,9.576082230E-4
6.448521722E1,-2.996332943E-3
6.450209918E1,-2.344772220E-3
6.451898356E1,-3.759130836E-3
6.453586588E1,3.265842795E-3
6.455275047E1,-1.392863691E-3
6.456963183E1,-4.791393876E-4
6.458651624E1,2.498492599E-3
6.460339882E1,-2.261452377E-3
6.462028157E1,-1.785159111E-4
6.463716665E1,-1.216232777E-4
6.465404882E1,5.360677838E-3
6.467093195E1,2.156898379E-3
6.468781298E1,-1.231454313E-3
6.470468781E1,-7.933825254E-4
6.472158249E1,-5.145587027E-3
6.473846444E1,-2.537511289E-3
6.475534898E1,-1.080244780E-3
6.477223076E1,-1.141801476E-3
6.478911532E1,-7.765367627E-4
6.480599766E1,-8.050799370E-4
6.482288203E1,-7.755160332E-4
6.483976371E1,2.933248878E-3
6.485664623E1,-1.319095492E-3
6.487353995E1,-3.541037440E-4
6.489040168E1,-6.900653243E-4
6.490729534E1,-1.907564700E-3
6.492417931E1,8.955463767E-3
6.494104979E1,7.579550147E-4
6.495795702E1,-3.703914583E-3
6.497482899E1,7.533729076E-4
6.499171435E1,-1.381002367E-3
6.500859593E1,1.319639385E-3
6.502548073E1,-5.535319448E-3
6.504236263E1,-2.325326204E-3
6.505924357E1,1.993089914E-3
6.507613230E1,5.638971925E-3
6.509300018E1,1.368738711E-3
6.510989570E1,3.968268633E-3
6.512677984E1,2.869471908E-3
6.514366200E1,-2.379521728E-3
6.516055271E1,1.688316464E-3
6.517742828E1,2.374969423E-3
6.519430926E1,-1.295380294E-3
6.521119847E1,-5.088672042E-3
6.522807810E1,-1.742765307E-4
6.524496097E1,3.333486617E-3
6.526185722E1,-1.206696033E-4
6.527872648E1,5.733817816E-4
6.529561195E1,1.083061099E-3
6.531249438E1,-1.642599702E-3
6.532937838E1,-8.831322193E-4
6.534626060E1,-1.104928553E-3
6.536314544E1,4.490785301E-3
6.538002667E1,-1.127287745E-3
6.539689832E1,9.412840009E-4
6.541379333E1,2.470344305E-3
6.543067835E1,2.764642239E-3
6.544755978E1,-1.382023096E-3
6.546444435E1,-6.390437484E-4
6.548132656E1,-1.182183623E-4
6.549821041E1,1.840427518E-3
6.551509319E1,-2.705499530E-3
6.553197722E1,6.979927421E-4
6.554885809E1,-1.730509102E-3
6.556574421E1,-2.772882581E-4
6.558262599E1,1.052901149E-3
6.559951002E1,1.335740089E-3
6.561639178E1,-4.535906017E-3
6.563327761E1,-5.371153355E-3
6.565015850E1,4.008382559E-3
6.566704292E1,6.788000464E-4
6.568392509E1,6.287321448E-4
6.570079981E1,1.669377089E-4
6.571769141E1,-1.657597721E-3
6.573457568E1,4.173889756E-4
6.575145835E1,1.972921193E-3
6.576834283E1,-6.056323647E-3
6.578522412E1,-4.304215312E-3
6.580210881E1,3.297179937E-4
6.581899104E1,2.260416746E-3
6.583587547E1,1.006461680E-3
6.585275715E1,3.930620849E-3
6.586963720E1,-2.855807543E-5
6.588652358E1,2.331905067E-3
6.590340048E1,-4.308633506E-3
6.592028992E1,-1.459203660E-3
6.593717335E1,2.073980868E-3
6.595405291E1,2.578303218E-3
6.597093187E1,-1.471847296E-3
6.598782309E1,-4.181988537E-3
6.600470756E1,1.592442393E-3
6.602158983E1,-1.607403159E-3
6.603846684E1,-2.103537321E-3
6.605535267E1,-4.165962338E-3
6.607224077E1,-1.418314874E-3
6.608912253E1,-9.668394923E-4
6.610600715E1,-1.953162253E-3
6.612288820E1,3.053240478E-3
6.613977152E1,-6.100498140E-3
6.615664355E1,4.179820418E-3
6.617354327E1,2.423048019E-3
6.619041703E1,2.499528229E-3
6.620730574E1,-5.161091685E-4
6.622417522E1,-4.156641662E-3
6.624107289E1,-1.274764538E-3
6.625795214E1,-3.128647804E-3
6.627483976E1,-1.606889069E-3
6.629171701E1,3.874301910E-7
6.630860541E1,1.081481576E-3
6.632548719E1,-3.481723368E-3
6.634237163E1,5.288429558E-3
6.635924215E1,1.679234207E-3
6.637613830E1,-3.351747990E-3
6.639302058E1,1.647472382E-3
6.640990460E1,1.354470849E-3
6.642678685E1,-1.783967018E-3
6.644367109E1,3.706105053E-3
6.646054926E1,1.643881202E-3
6.647744073E1,2.346694469E-3
6.649431423E1,-1.577056944E-3
6.651119949E1,-1.107268035E-3
6.652808576E1,-3.765352070E-3
6.654497029E1,-5.508020520E-3
6.656185282E1,-3.793627024E-3
6.657873570E1,-4.248507321E-3
6.659560567E1,2.790510654E-3
6.661250345E1,1.521110535E-3
6.662938522E1,-2.951696515E-4
6.664626987E1,2.183705568E-3
6.666315162E1,-8.854269981E-4
6.668003607E1,-2.255171537E-3
6.669691662E1,3.163486719E-3
6.671380302E1,1.725062728E-3
6.673068440E1,1.482546329E-3
6.674756914E1,1.114130020E-3
6.676445108E1,-3.859996796E-4
6.678133608E1,-3.443576396E-3
6.679821414E1,1.491196454E-3
6.681510503E1,-2.545811236E-3
6.683197992E1,4.381760955E-3
6.684886856E1,-2.018079162E-3
6.686575016E1,-4.733860493E-3
6.688263450E1,-3.322526813E-3
6.689951559E1,-5.891919136E-3
6.691639919E1,6.627291441E-4
6.693328520E1,5.229912698E-3
6.695016752E1,9.214699268E-3
6.696704972E1,6.807275116E-3
6.698393412E1,2.560906112E-3
6.700080274E1,-1.075223088E-3
6.701769924E1,-4.470497370E-4
6.703458239E1,-1.407563686E-3
6.705146701E1,1.235522330E-3
6.706834875E1,2.866864204E-3
6.708523334E1,-8.740276098E-4
6.710211587E1,1.550063491E-3
6.711899982E1,3.117300570E-3
6.713587884E1,3.274172544E-3
6.715276877E1,5.358606577E-4
6.716962993E1,3.111757338E-3
6.718653270E1,4.568323493E-4
6.720341402E1,-3.159038723E-3
6.722029452E1,-4.424631596E-3
6.723718445E1,-1.754499972E-3
6.725406572E1,9.424462914E-4
6.727094727E1,4.324093461E-4
6.728783079E1,4.972144961E-3
6.730471482E1,-3.364756703E-4
6.732159834E1,8.712634444E-4
6.733846058E1,3.288954496E-3
6.735536778E1,-4.235655069E-4
6.737224671E1,-8.424669504E-4
6.738913166E1,2.910122275E-4
6.740601263E1,-2.485245466E-3
6.742289464E1,5.290657282E-5
6.743978035E1,4.633888602E-4
6.745666235E1,-7.246062160E-4
6.747353700E1,1.432545483E-3
6.749041945E1,6.396941841E-3
6.750731262E1,4.308477044E-3
6.752419429E1,2.362497151E-3
6.754107997E1,3.681257367E-3
6.755795006E1,-2.855882049E-4
6.757484580E1,9.653344750E-4
6.759172757E1,5.244590342E-3
6.760861379E1,3.668345511E-3
6.762549595E1,6.661564112E-4
6.764237831E1,2.334013581E-3
6.765925852E1,2.109207213E-3
6.767613439E1,1.855991781E-3
6.769302873E1,7.739812136E-3
6.770991079E1,-2.995461226E-3
6.772679389E1,2.858281136E-3
6.774367736E1,-7.966831326E-4
6.776055222E1,1.934565604E-3
6.777742767E1,2.324230969E-3
6.779433839E1,2.411894500E-3
6.781121302E1,5.363792181E-3
6.782809443E1,2.543754876E-3
6.784497658E1,-3.616213799E-4
6.786185612E1,-5.022659898E-3
6.787874284E1,1.337915659E-3
6.789562736E1,6.240010262E-4
6.791250905E1,-4.059448838E-3
6.792938184E1,1.564145088E-3
6.794627544E1,7.534325123E-4
6.796316028E1,3.023542464E-3
6.798003763E1,-1.844055951E-3
6.799692460E1,-3.956235945E-3
6.801381417E1,-1.863613725E-4
6.803069276E1,6.293602288E-3
6.804757385E1,1.447059214E-3
6.806444888E1,-1.620911062E-3
6.808134146E1,-1.918919384E-3
6.809822612E1,3.369003534E-4
6.811510775E1,6.031021476E-4
6.813199238E1,-3.418006003E-3
6.814887412E1,-1.027740538E-3
6.816575861E1,3.196127713E-3
6.818262372E1,2.664074302E-3
6.819952530E1,1.190833747E-3
6.821640302E1,-4.623882473E-3
6.823329478E1,2.664841712E-3
6.825017392E1,3.474347293E-3
6.826705840E1,-2.832636237E-4
6.828393991E1,4.082985222E-3
6.830081115E1,7.619470358E-3
6.831770639E1,-3.995954990E-3
6.833459107E1,-8.537545800E-4
6.835147249E1,1.858457923E-3
6.836835578E1,-3.411665559E-3
6.838523902E1,-3.142476082E-3
6.840212363E1,2.066791058E-5
6.841900330E1,-1.693844795E-3
6.843588401E1,3.084450960E-3
