Time (s),Linear Acceleration x (m/s^2)
2.438204167E-2,1.285095574E-2
3.431704166E-2,-4.433267545E-3
4.425204167E-2,7.732759975E-4
5.418704166E-2,6.510143727E-3
6.412204167E-2,6.012344677E-3
7.405704167E-2,-1.004189853E-2
8.399204166E-2,-2.197292279E-3
9.392704167E-2,2.394528000E-2
1.038620417E-1,-5.243673362E-3
1.137970417E-1,-1.498551836E-2
1.237320417E-1,5.958130024E-3
1.336670417E-1,4.061585627E-3
1.436010417E-1,-1.126880882E-2
1.535360417E-1,-4.469465464E-4
1.634710417E-1,3.760947380E-3
1.734060417E-1,1.234301543E-2
1.833410417E-1,1.292234659E-2
1.932760417E-1,-1.898773648E-3
2.032110417E-1,8.810292184E-4
2.131460417E-1,5.131132733E-3
2.230810417E-1,3.548949268E-3
2.330160417E-1,-3.207325693E-3
2.429510417E-1,-4.695040081E-3
2.528860417E-1,5.605140924E-3
2.628200417E-1,-3.446093090E-3
2.727550417E-1,1.224814435E-2
2.826900417E-1,8.893194739E-3
2.926250417E-1,-1.706911884E-2
3.025600417E-1,1.201315938E-2
3.124950417E-1,1.525969796E-2
3.224300417E-1,3.285952471E-4
3.323650417E-1,-9.636394121E-4
3.423000417E-1,-5.361348577E-4
3.522350417E-1,-1.312718187E-3
3.621700417E-1,7.132963557E-3
3.721050417E-1,5.884509925E-3
3.820400417E-1,9.143565204E-3
3.919740417E-1,1.547308479E-2
4.019090417E-1,2.564656394E-2
4.118440417E-1,-1.400525093E-2
4.217790417E-1,2.379433047E-3
4.317140417E-1,-1.305579102E-2
4.416490417E-1,-1.017346088E-2
4.515840417E-1,6.000193432E-3
4.615190417E-1,1.498166285E-4
4.714540417E-1,1.162188929E-3
4.813890417E-1,-3.919480015E-3
4.913240417E-1,4.879885186E-3
5.012590417E-1,2.079489157E-2
5.111930417E-1,7.828471586E-3
5.211280417E-1,1.262578312E-3
5.310630417E-1,-4.287014063E-3
5.409980417E-1,7.274447903E-3
5.509330417E-1,7.808828596E-3
5.608680417E-1,-1.182984916E-2
5.708030417E-1,7.527120709E-3
5.807380417E-1,9.104297496E-4
5.906730417E-1,1.785374209E-2
6.006080417E-1,5.552022625E-3
6.105430417E-1,1.135478117E-2
6.204780417E-1,2.980197910E-3
6.304120417E-1,1.801052056E-2
6.403470417E-1,-9.050649293E-3
6.502811250E-1,-3.893258907E-3
6.602161250E-1,9.961316586E-3
6.701511250E-1,5.117263868E-3
6.800861250E-1,9.114164673E-4
6.900211250E-1,7.682693191E-4
6.999561250E-1,1.223602965E-3
7.098911250E-1,-1.047334995E-2
7.198261250E-1,1.265136469E-2
7.297611250E-1,-9.051398467E-3
7.396961250E-1,1.956240814E-3
7.496311250E-1,1.728014851E-2
7.595651250E-1,1.182122452E-2
7.695001250E-1,4.988515489E-3
7.794351250E-1,4.241606779E-4
7.893701250E-1,1.119098604E-2
7.993051250E-1,9.662615228E-3
8.092401250E-1,-4.455249421E-3
8.191751250E-1,2.098711878E-3
8.291101250E-1,9.631661531E-3
8.390451250E-1,1.890585719E-2
8.489801250E-1,3.098019306E-3
8.589151250E-1,6.563974656E-3
8.688501250E-1,-8.942768164E-4
8.787841250E-1,-4.448031764E-3
8.887191250E-1,7.119642869E-3
8.986541250E-1,9.660258070E-3
9.085891250E-1,-5.840948168E-3
9.185241250E-1,1.022445956E-2
9.284591250E-1,-5.917199515E-3
9.383941250E-1,1.811279202E-2
9.483291250E-1,5.067946259E-3
9.582641250E-1,-1.133172121E-3
9.681991250E-1,-2.627559643E-2
9.781341250E-1,4.214819223E-3
9.880691250E-1,1.353924612E-2
9.980031250E-1,-1.352835568E-2
1.007938125E0,-3.102550898E-3
1.017873125E0,1.034664810E-3
1.027808125E0,6.180817578E-3
1.037743125E0,7.203002237E-3
1.047678125E0,1.839380555E-2
1.057613125E0,9.410728142E-3
1.067548125E0,2.221167192E-2
1.077483125E0,-4.536342993E-4
1.087418125E0,1.164509542E-2
1.097353125E0,-5.026979204E-3
1.107288125E0,-4.649431799E-3
1.117222125E0,1.213063359E-2
1.127157125E0,-3.164165933E-3
1.137092125E0,-3.791608717E-3
1.147027125E0,1.403514482E-2
1.156962125E0,1.925500905E-2
1.166897125E0,1.538862906E-2
1.176832125E0,3.658219110E-3
1.186767125E0,5.865488201E-5
1.196702125E0,7.271049209E-3
1.206637125E0,1.793903835E-2
1.216572125E0,-2.590188626E-3
1.226507125E0,1.974657716E-2
1.236441125E0,-3.140886705E-3
1.246376125E0,8.088014871E-3
1.256311125E0,2.112672105E-2
1.266246125E0,-1.526956514E-2
1.276181125E0,6.541937962E-4
1.286116125E0,6.597998142E-3
1.296051125E0,-6.193845905E-4
1.305986125E0,1.872479450E-3
1.315921125E0,5.710957255E-3
1.325856125E0,-1.276136544E-3
1.335791125E0,1.342813075E-2
1.345726125E0,1.500130584E-2
1.355660125E0,-1.039377300E-2
1.365595125E0,-1.281227276E-2
1.375530125E0,4.444797523E-3
1.385465125E0,-1.640363261E-3
1.395400125E0,1.558193436E-2
1.405335125E0,6.864576358E-3
1.415270125E0,1.826779805E-3
1.425205125E0,-7.049238738E-3
1.435140125E0,3.668945096E-3
1.445075125E0,1.972932788E-2
1.455010125E0,1.986719426E-3
1.464945125E0,8.842470143E-3
1.474879125E0,1.205650186E-2
1.484814125E0,-2.275535334E-3
1.494749125E0,-3.890773840E-3
1.504684125E0,-1.105569609E-2
1.514619125E0,5.604336932E-3
1.524554125E0,1.475826267E-2
1.534489125E0,6.268489268E-3
1.544424125E0,-6.604941711E-3
1.554359125E0,-4.606637489E-3
1.564294125E0,5.824740417E-3
1.574229125E0,6.154779196E-3
1.584164125E0,1.091784798E-3
1.594098125E0,-4.242118411E-3
1.604033125E0,2.407572772E-3
1.613968125E0,1.931773871E-3
1.623903125E0,1.979428679E-3
1.633838125E0,3.446750902E-4
1.643772875E0,1.362295266E-2
1.653707875E0,1.188863195E-2
1.663642875E0,-3.604442999E-3
1.673577875E0,5.076899808E-3
1.683512875E0,5.459380802E-3
1.693447875E0,5.671598185E-3
1.703382875E0,4.801696949E-3
1.713316875E0,4.328675475E-3
1.723251875E0,-6.336262152E-3
1.733186875E0,8.596960176E-3
1.743121875E0,3.008502088E-3
1.753056875E0,1.625198873E-2
1.762991875E0,4.207491931E-3
1.772926875E0,-3.173759021E-3
1.782861875E0,3.868664056E-3
1.792796875E0,2.406988051E-3
1.802731875E0,9.672171772E-3
1.812666875E0,8.352181111E-3
1.822601875E0,1.090871170E-5
1.832535875E0,2.849457823E-3
1.842470875E0,5.301122256E-3
1.852405875E0,1.332079779E-2
1.862340875E0,5.867059641E-3
1.872275875E0,-3.116163947E-3
1.882210875E0,-1.600072291E-3
1.892145875E0,-8.892920651E-3
1.902080875E0,-3.387419935E-3
1.912015875E0,-1.333925307E-2
1.921950875E0,2.559435926E-3
1.931885875E0,1.118133813E-3
1.941819875E0,6.599003132E-3
1.951754875E0,6.606202517E-3
1.961689875E0,-1.840175411E-2
1.971624875E0,-1.065558208E-2
1.981559875E0,-1.325916449E-2
1.991494875E0,-8.190615233E-3
2.001429875E0,-3.588472791E-3
2.011364875E0,6.042055842E-3
2.021299875E0,1.430356856E-3
2.031234875E0,-1.628924645E-3
2.041169875E0,-2.346195281E-5
2.051104875E0,7.745002583E-3
2.061038875E0,7.552007921E-3
2.070973875E0,5.967156664E-3
2.080908875E0,-1.551047042E-3
2.090843875E0,1.451949527E-2
2.100778875E0,-6.107325386E-3
2.110713875E0,-6.917292662E-3
2.120648875E0,-9.088217653E-4
2.130583875E0,7.827064600E-3
2.140518875E0,-5.678395573E-3
2.150453875E0,1.325099666E-2
2.160388875E0,-1.522614956E-3
2.170323875E0,2.228300795E-3
2.180257875E0,5.992847867E-3
2.190192875E0,-6.145076472E-3
2.200127875E0,-5.987238195E-3
2.210062875E0,1.629174979E-2
2.219997875E0,-2.534767985E-3
2.229932875E0,6.067564320E-3
2.239867875E0,-1.907270383E-3
2.249802875E0,-1.469953470E-2
2.259737875E0,2.418554574E-3
2.269672875E0,5.150446817E-3
2.279607875E0,9.379500356E-3
2.289542875E0,4.421737567E-3
2.299476875E0,3.974809293E-3
2.309411875E0,9.903904237E-4
2.319346875E0,-2.427252308E-3
2.329281875E0,8.792841900E-3
2.339216875E0,-1.195233006E-2
2.349151875E0,-2.167526297E-2
2.359086875E0,-1.500640389E-2
2.369021875E0,-4.776316378E-3
2.378956875E0,1.221655112E-2
2.388891875E0,4.095389843E-3
2.398826875E0,8.771371655E-3
2.408760875E0,1.842274927E-3
2.418695875E0,1.134118639E-2
2.428630875E0,-7.777655628E-3
2.438565875E0,-7.891292609E-3
2.448500875E0,8.555042949E-3
2.458435875E0,3.818231821E-3
2.468370875E0,1.112474805E-2
2.478305875E0,-2.836502586E-3
2.488240875E0,-5.470271241E-3
2.498175875E0,-5.101275388E-3
2.508110875E0,-8.783760443E-3
2.518045875E0,1.197175378E-2
2.527979875E0,1.242155084E-2
2.537914875E0,1.951544769E-3
2.547849875E0,-1.777736284E-3
2.557784875E0,1.065993095E-2
2.567719875E0,-6.858948413E-3
2.577654875E0,8.710688520E-3
2.587589875E0,1.779380813E-4
2.597524875E0,-1.271546479E-2
2.607459875E0,2.672652639E-3
2.617394875E0,-5.973113514E-3
2.627329875E0,4.517156817E-4
2.637263875E0,8.648762852E-3
2.647199292E0,9.861694649E-4
2.657134292E0,7.990457732E-3
2.667069292E0,7.548115868E-3
2.677004292E0,1.098001119E-2
2.686939292E0,1.701325966E-2
2.696874292E0,1.086948054E-2
2.706809292E0,2.459678773E-2
2.716744292E0,-3.821502607E-3
2.726679292E0,-4.620963167E-3
2.736614292E0,-1.088925144E-2
2.746549292E0,1.321536519E-2
2.756483292E0,2.476085695E-2
2.766418292E0,-2.198352087E-3
2.776353292E0,8.121599816E-3
2.786288292E0,9.603795893E-3
2.796223292E0,1.679084620E-2
2.806158292E0,2.563218344E-3
2.816093292E0,8.637013603E-3
2.826028292E0,-5.098351780E-3
2.835963292E0,-1.969280105E-2
2.845898292E0,-7.014466077E-4
2.855833292E0,2.353540845E-3
2.865767292E0,5.917126425E-3
2.875702292E0,6.255753301E-3
2.885637292E0,1.464184826E-2
2.895572292E0,4.924598113E-3
2.905507292E0,1.081351172E-2
2.915442292E0,-2.578055654E-3
2.925377292E0,-7.836255692E-3
2.935312292E0,1.111667158E-2
2.945247292E0,-3.540087081E-3
2.955182292E0,1.032620111E-2
2.965117292E0,6.579122599E-3
2.975052292E0,-1.030116772E-2
2.984986292E0,-2.338045724E-3
2.994921292E0,-8.143015243E-3
3.004856292E0,-6.426090002E-4
3.014791292E0,8.429437447E-3
3.024726292E0,-1.393884849E-3
3.034661292E0,1.814116929E-3
3.044596292E0,1.192795448E-3
3.054531292E0,5.131041370E-3
3.064466292E0,1.076627718E-2
3.074401292E0,-2.337424457E-4
3.084336292E0,-8.502527643E-3
3.094271292E0,2.103806265E-2
3.104205292E0,6.237681750E-3
3.114140292E0,5.858910084E-4
3.124075292E0,-6.322630830E-3
3.134010292E0,8.380028475E-3
3.143945292E0,1.633236967E-3
3.153880292E0,-2.251031846E-3
3.163815292E0,2.835113872E-3
3.173750292E0,2.282809636E-2
3.183685292E0,-1.874580793E-3
3.193620292E0,1.034081915E-2
3.203555292E0,-6.419292614E-3
3.213489292E0,3.858029433E-3
3.223424292E0,-1.788042001E-3
3.233359292E0,-1.775178127E-4
3.243294292E0,9.233502690E-3
3.253229292E0,-5.321697146E-4
3.263164292E0,-2.834766693E-3
3.273099292E0,-9.448022414E-3
3.283034292E0,-1.478117645E-2
3.292969292E0,-8.360312395E-3
3.302904292E0,-9.311636109E-3
3.312839292E0,1.407890758E-2
3.322774292E0,3.442877121E-3
3.332708292E0,-6.523775049E-3
3.342643292E0,5.165887121E-3
3.352578292E0,5.281936079E-3
3.362513292E0,6.382911969E-3
3.372448292E0,3.864333462E-3
3.382383292E0,-1.078920923E-3
3.392318292E0,6.887928676E-3
3.402253292E0,1.785931522E-2
3.412188292E0,-8.502765186E-3
3.422123292E0,-1.048230350E-2
3.432058292E0,6.309346687E-3
3.441992292E0,1.617383704E-2
3.451927292E0,1.351450508E-2
3.461862292E0,3.400996439E-3
3.471797292E0,6.784469504E-3
3.481732292E0,-6.194302719E-3
3.491667292E0,-2.320778165E-3
3.501602292E0,8.083592914E-3
3.511537292E0,-1.973471828E-3
3.521472292E0,3.521120176E-5
3.531407292E0,-1.058985572E-3
3.541342292E0,-3.782198355E-3
3.551277292E0,1.774209682E-3
3.561211292E0,3.766684961E-3
3.571146292E0,-1.440790482E-4
3.581081292E0,-1.390350938E-2
3.591016292E0,-5.518602133E-3
3.600951292E0,8.437568732E-3
3.610886292E0,1.573796365E-3
3.620821292E0,-3.834275119E-3
3.630756292E0,5.954621695E-3
3.640691292E0,2.339814506E-2
3.650627000E0,6.843380202E-3
3.660562000E0,-2.738251090E-3
3.670497000E0,4.905759115E-3
3.680431000E0,-1.053173074E-2
3.690366000E0,6.386913657E-3
3.700301000E0,2.787221521E-3
3.710236000E0,3.296057191E-3
3.720171000E0,1.152097000E-2
3.730106000E0,1.217244118E-3
3.740041000E0,1.521624584E-2
3.749976000E0,-2.252639830E-3
3.759911000E0,-2.483677939E-3
3.769846000E0,8.687902652E-3
3.779781000E0,1.963701496E-2
3.789715000E0,-1.947627135E-2
3.799650000E0,-2.597241830E-3
3.809585000E0,1.330374951E-2
3.819520000E0,-6.857029796E-3
3.829455000E0,1.248565095E-2
3.839390000E0,6.411325783E-3
3.849325000E0,1.786015576E-2
3.859260000E0,7.401113212E-4
3.869195000E0,-1.186674144E-2
3.879130000E0,-5.736867730E-3
3.889065000E0,9.606226142E-3
3.898999000E0,9.732306730E-3
3.908934000E0,-1.215882814E-2
3.918869000E0,-4.152656011E-3
3.928804000E0,-1.398372587E-2
3.938739000E0,-5.727512185E-3
3.948674000E0,-1.462260727E-3
3.958609000E0,-4.263533838E-3
3.968544000E0,7.427992132E-3
3.978479000E0,1.500989394E-2
3.988414000E0,1.121176193E-2
3.998349000E0,4.471859168E-3
4.008284000E0,-1.064476473E-2
4.018218000E0,-7.481000796E-3
4.028153000E0,-4.144707453E-3
4.038088000E0,2.028874196E-3
4.048023000E0,1.337272838E-2
4.057958000E0,9.970544223E-3
4.067893000E0,-1.769318121E-2
4.077828000E0,-2.631082591E-3
4.087763000E0,3.604899812E-3
4.097698000E0,-5.971194897E-3
4.107633000E0,9.986276887E-3
4.117568000E0,-1.377286065E-2
4.127502000E0,-5.166618023E-3
4.137437000E0,-1.076335358E-2
4.147372000E0,-2.002908904E-3
4.157307000E0,1.392678861E-2
4.167242000E0,6.924199685E-3
4.177177000E0,-4.441143014E-3
4.187112000E0,-1.986372247E-3
4.197047000E0,-1.824210685E-2
4.206982000E0,8.097991683E-3
4.216917000E0,-7.585300505E-4
4.226852000E0,-3.449254241E-3
4.236787000E0,1.921077121E-2
4.246721000E0,-9.537722357E-4
4.256656000E0,-1.291942298E-2
4.266591000E0,3.671503253E-3
4.276526000E0,-1.090938779E-2
4.286461000E0,-7.797883339E-3
4.296396000E0,2.803995721E-3
4.306331000E0,4.411504939E-3
4.316266000E0,-8.758233692E-3
4.326201000E0,-5.945704691E-4
4.336136000E0,1.112056363E-2
4.346071000E0,1.691128056E-2
4.356005000E0,5.204935558E-4
4.365940000E0,-7.999959458E-3
4.375875000E0,-5.179025084E-3
4.385810000E0,2.760543600E-3
4.395745000E0,6.307482887E-3
4.405680000E0,-1.941001508E-3
4.415615000E0,1.125958119E-2
4.425550000E0,1.451132745E-3
4.435485000E0,3.293992393E-3
4.445420000E0,-1.720908657E-3
4.455355000E0,-1.004546167E-2
4.465290000E0,1.736074872E-4
4.475224000E0,-6.070250385E-3
4.485159000E0,-2.904677466E-3
4.495094000E0,-6.462434102E-3
4.505029000E0,-8.011599071E-3
4.514964000E0,-8.553544600E-3
4.524899000E0,7.632224411E-3
4.534834000E0,1.389422692E-2
4.544769000E0,1.335025314E-2
4.554704000E0,1.545578068E-2
4.564639000E0,9.008001164E-4
4.574574000E0,-4.737852663E-3
4.584508000E0,3.232048452E-4
4.594443000E0,-7.723367885E-3
4.604378000E0,1.811540499E-4
4.614313000E0,1.391491145E-3
4.624248000E0,-2.306415942E-3
4.634183000E0,8.386094961E-3
4.644118000E0,1.221329860E-2
4.654052292E0,3.626095969E-3
4.663987292E0,1.620109968E-2
4.673922292E0,-1.841001330E-2
4.683857292E0,-8.059929963E-3
4.693792292E0,-1.668333052E-2
4.703726292E0,-4.167475048E-3
4.713661292E0,1.975317355E-3
4.723596292E0,-2.283520438E-4
4.733531292E0,-1.278504666E-2
4.743466292E0,6.663267687E-4
4.753401292E0,4.261304587E-3
4.763336292E0,-4.681975208E-3
4.773271292E0,-1.342686994E-2
4.783206292E0,-8.390955459E-3
4.793141292E0,-5.728900898E-3
4.803076292E0,-1.661742143E-2
4.813011292E0,-1.885215417E-3
4.822945292E0,7.539984584E-3
4.832880292E0,1.971461847E-3
4.842815292E0,2.909757234E-3
4.852750292E0,-5.947513673E-3
4.862685292E0,9.869917296E-3
4.872620292E0,1.691968594E-2
4.882555292E0,1.218601769E-2
4.892490292E0,1.876408048E-4
4.902425292E0,1.313597096E-2
4.912360292E0,6.082291994E-3
4.922295292E0,-4.201224446E-4
4.932229292E0,-4.444358982E-3
4.942164292E0,-9.582855552E-4
4.952099292E0,5.494500641E-3
4.962034292E0,-1.150043165E-2
4.971969292E0,7.295698877E-3
4.981904292E0,1.005518267E-2
4.991839292E0,-8.438171726E-3
5.001774292E0,-1.343032345E-4
5.011709292E0,1.971553210E-3
5.021644292E0,6.542084143E-3
5.031579292E0,-8.800954912E-3
5.041514292E0,-5.365825351E-3
5.051448292E0,-9.375005309E-3
5.061383292E0,-2.063573766E-3
5.071318292E0,8.563795500E-3
5.081253292E0,1.607746761E-2
5.091188292E0,2.300946968E-2
5.101123292E0,-6.880345568E-3
5.111058292E0,3.900129385E-3
5.120993292E0,-1.886828883E-2
5.130928292E0,-4.669842236E-3
5.140863292E0,3.855690546E-3
5.150798292E0,-1.595920768E-2
5.160732292E0,-7.994989324E-3
5.170667292E0,-1.549512148E-4
5.180602292E0,3.497987129E-3
5.190537292E0,2.581509165E-3
5.200472292E0,-3.879499678E-3
5.210407292E0,1.061509011E-2
5.220342292E0,-9.620898999E-3
5.230277292E0,-4.245352652E-3
5.240212292E0,5.894742552E-3
5.250147292E0,8.047468085E-3
5.260082292E0,-4.599090926E-3
5.270017292E0,-3.690524977E-3
5.279951292E0,-1.372442013E-2
5.289886292E0,-1.248252634E-3
5.299821292E0,2.024909053E-3
5.309756292E0,-1.227383556E-2
5.319691292E0,-3.582808301E-3
5.329626292E0,-2.507487070E-3
5.339561292E0,-1.456855707E-2
5.349496292E0,1.192651095E-2
5.359431292E0,-4.395662639E-3
5.369366292E0,1.029778730E-2
5.379301292E0,-4.552770015E-3
5.389235292E0,-7.604632862E-3
5.399170292E0,4.805095643E-3
5.409105292E0,-9.044400081E-3
5.419040292E0,5.313693769E-3
5.428975292E0,-7.370872144E-3
5.438910292E0,2.001297265E-2
5.448845292E0,-2.498496976E-3
5.458780292E0,-7.261017580E-3
5.468715292E0,-9.975898080E-4
5.478650292E0,-1.149600970E-2
5.488585292E0,-3.666185942E-3
5.498520292E0,3.913450073E-3
5.508454292E0,9.904160053E-3
5.518389292E0,-3.205206078E-3
5.528324292E0,-3.345027622E-3
5.538259292E0,-8.185553737E-4
5.548194292E0,-8.650590107E-4
5.558129292E0,-9.069342110E-3
5.568064292E0,6.279726885E-4
5.577999292E0,-9.751876630E-3
5.587934292E0,-1.161631616E-2
5.597869292E0,7.789057698E-3
5.607804292E0,1.041359872E-2
5.617738292E0,5.445457119E-3
5.627673292E0,5.525235068E-3
5.637608292E0,-9.028320238E-3
5.647543500E0,-4.923611395E-3
5.657478500E0,-5.722962320E-3
5.667413500E0,1.035465147E-2
5.677348500E0,1.231352353E-2
5.687283500E0,-6.528635547E-3
5.697218500E0,4.973605089E-4
5.707153500E0,-1.064823652E-2
5.717088500E0,2.694214247E-3
5.727022500E0,1.452101190E-3
5.736957500E0,3.851122409E-4
5.746892500E0,-1.339469198E-3
5.756827500E0,2.264827620E-3
5.766762500E0,1.949297246E-3
5.776697500E0,-3.046600353E-3
5.786632500E0,2.787550427E-3
5.796567500E0,3.908242397E-3
5.806502500E0,9.916037209E-3
5.816437500E0,1.891676590E-2
5.826372500E0,6.497846302E-3
5.836307500E0,7.084047943E-3
5.846241500E0,-7.019436210E-3
5.856176500E0,-1.262011863E-2
5.866111500E0,-3.921581358E-3
5.876046500E0,9.931788146E-3
5.885981500E0,2.008074554E-2
5.895916500E0,3.639526293E-4
5.905851500E0,2.525375895E-3
5.915786500E0,9.930198435E-3
5.925721500E0,-5.762029029E-3
5.935656500E0,-6.719912589E-4
5.945591500E0,-1.595928077E-2
5.955525500E0,1.979812402E-3
5.965460500E0,2.675579902E-2
5.975395500E0,1.898156036E-2
5.985330500E0,1.155130243E-2
5.995265500E0,-1.136863176E-3
6.005200500E0,-2.232923750E-3
6.015135500E0,1.349418601E-2
6.025070500E0,-4.776663557E-3
6.035005500E0,-8.847915363E-3
6.044940500E0,-5.090695582E-3
6.054875500E0,-1.006075580E-2
6.064809500E0,3.088298310E-3
6.074744500E0,4.648682624E-3
6.084679500E0,8.400183097E-3
6.094614500E0,1.403854351E-2
6.104549500E0,1.161640752E-3
6.114484500E0,1.357823974E-2
6.124419500E0,1.147278529E-3
6.134354500E0,-4.415360447E-3
6.144289500E0,-9.797192551E-3
6.154224500E0,-1.063562846E-2
6.164159500E0,-9.703253377E-3
6.174094500E0,3.976910636E-3
6.184028500E0,1.264222842E-3
6.193963500E0,-4.691952020E-3
6.203898500E0,1.937555306E-2
6.213833500E0,8.343154471E-3
6.223768500E0,5.692830887E-3
6.233703500E0,-4.589497838E-3
6.243638500E0,3.241330907E-3
6.253573500E0,-1.303883409E-2
6.263508500E0,1.077239849E-3
6.273443500E0,2.364769327E-2
6.283378500E0,3.782801349E-3
6.293312500E0,-1.847345559E-2
6.303247500E0,-8.283878323E-3
6.313182500E0,7.358446810E-3
6.323117500E0,-3.159999792E-3
6.333052500E0,-1.727532456E-2
6.342987500E0,-8.832109608E-3
6.352922500E0,1.114057207E-2
6.362857500E0,-1.118755080E-3
6.372792500E0,6.788617373E-4
6.382727500E0,-7.897578366E-3
6.392662500E0,1.016538441E-3
6.402597500E0,-6.590597760E-3
6.412531500E0,5.072459579E-5
6.422466500E0,1.162742587E-2
6.432401500E0,-1.504671313E-3
6.442336500E0,7.702866085E-3
6.452271500E0,1.835134014E-2
6.462206500E0,-4.083932955E-3
6.472141500E0,-2.625600826E-3
6.482076500E0,-6.587929968E-3
6.492011500E0,1.241175676E-2
6.501946500E0,1.331873300E-2
6.511881500E0,3.976764455E-3
6.521815500E0,1.893237066E-3
6.531750500E0,2.020903710E-2
6.541685500E0,3.643400073E-3
6.551620500E0,3.847029358E-3
6.561555500E0,7.949143499E-3
6.571490500E0,6.658900548E-3
6.581425500E0,-2.266910691E-3
6.591360500E0,-1.203972766E-2
6.601295500E0,3.572447766E-3
6.611230500E0,-9.805707559E-3
6.621165500E0,-7.807622608E-3
6.631100500E0,7.509907968E-3
6.641034500E0,-1.212522492E-2
6.650969667E0,-3.686760832E-3
6.660904667E0,-5.802721996E-3
6.670839667E0,-6.292846575E-3
6.680774667E0,-3.871478029E-3
6.690709667E0,-2.972194534E-3
6.700644667E0,-1.505700057E-2
6.710579667E0,9.867194686E-3
6.720514667E0,4.312010910E-3
6.730449667E0,1.328037892E-2
6.740384667E0,5.153626241E-3
6.750318667E0,1.380463662E-2
6.760253667E0,-2.785704900E-3
6.770188667E0,-1.049803616E-2
6.780123667E0,-9.257604182E-3
6.790058667E0,5.692136530E-3
6.799993667E0,-2.154198300E-2
6.809928667E0,-1.025899468E-2
6.819863667E0,-8.889869135E-3
6.829798667E0,-1.152393015E-2
6.839733667E0,6.797022745E-4
6.849668667E0,-2.773206476E-3
6.859603667E0,1.529578624E-2
6.869537667E0,8.826408572E-3
6.879472667E0,2.658473141E-4
6.889407667E0,-2.005764904E-2
6.899342667E0,-1.229066458E-3
6.909277667E0,-3.484575078E-4
6.919212667E0,2.144813519E-3
6.929147667E0,-5.636935160E-3
6.939082667E0,-3.585311640E-3
6.949017667E0,-3.881290387E-3
6.958952667E0,7.796330173E-3
6.968887667E0,1.858921219E-3
6.978821667E0,-9.748368300E-3
6.988756667E0,-3.549808078E-3
6.998691667E0,-2.868735362E-3
7.008626667E0,6.557999533E-3
7.018561667E0,-4.730762914E-3
7.028496667E0,-8.765158989E-4
7.038431667E0,-9.432563838E-3
7.048366667E0,-5.039422810E-3
7.058301667E0,-8.114711065E-3
7.068236667E0,-4.672144577E-3
7.078171667E0,-7.531506121E-3
7.088106667E0,-2.595780026E-3
7.098040667E0,-1.087728292E-2
7.107975667E0,3.097836580E-3
7.117910667E0,1.434815358E-3
7.127845667E0,2.042925786E-3
7.137780667E0,6.679000352E-3
7.147715667E0,-1.214269347E-2
7.157650667E0,-3.754734714E-3
7.167585667E0,-5.903056562E-3
7.177520667E0,-1.104009133E-2
7.187455667E0,-5.426490214E-3
7.197390667E0,-1.530344244E-3
7.207324667E0,-6.485073790E-3
7.217259667E0,-2.696936857E-3
7.227194667E0,-2.057397645E-3
7.237129667E0,-5.928455405E-3
7.247064667E0,-6.233314611E-4
7.256999667E0,-5.374303814E-3
7.266934667E0,-2.725844029E-3
7.276869667E0,-2.049902245E-2
7.286804667E0,-2.925270628E-3
7.296739667E0,-1.075721400E-2
7.306674667E0,8.092436828E-3
7.316609667E0,-9.124433845E-3
7.326543667E0,-5.355300363E-3
7.336478667E0,-5.690967087E-3
7.346413667E0,-1.046834327E-3
7.356348667E0,-5.058700349E-3
7.366283667E0,-1.045447441E-2
7.376218667E0,-1.906502936E-3
7.386153667E0,9.716044161E-3
7.396088667E0,8.758708779E-3
7.406023667E0,-1.003882874E-2
7.415958667E0,-4.668179434E-3
7.425893667E0,-2.686466686E-2
7.435828667E0,-3.989628330E-3
7.445762667E0,-1.316847783E-3
7.455697667E0,-6.216796227E-3
7.465632667E0,1.106210975E-2
7.475567667E0,-3.534239866E-3
7.485502667E0,1.324286537E-2
7.495437667E0,7.251077313E-3
7.505372667E0,-1.465573540E-2
7.515307667E0,-1.472977577E-2
7.525242667E0,2.205350474E-3
7.535177667E0,-1.568802478E-2
7.545112667E0,2.403516266E-3
7.555046667E0,-5.487008896E-3
7.564981667E0,7.803840190E-4
7.574916667E0,1.014287263E-2
7.584851667E0,-1.833230015E-3
7.594786667E0,-1.304283578E-2
7.604721667E0,-1.048551947E-3
7.614656667E0,5.223884191E-3
7.624591667E0,-1.371331042E-2
7.634526667E0,5.541388001E-3
7.644461667E0,-6.281956136E-3
7.654396750E0,-1.397360288E-2
7.664331750E0,9.216125496E-4
7.674265750E0,-5.060052518E-3
7.684200750E0,1.102090515E-3
7.694135750E0,1.105487382E-2
7.704070750E0,-1.979684494E-3
7.714005750E0,-7.739648726E-3
7.723940750E0,1.155921444E-3
7.733875750E0,9.134703018E-3
7.743810750E0,-3.285038844E-3
7.753745750E0,-1.540960595E-3
7.763680750E0,1.017859546E-2
7.773615750E0,-8.203826286E-4
7.783550750E0,1.711686501E-2
7.793484750E0,-1.744816460E-2
7.803419750E0,-7.473107055E-3
7.813354750E0,6.740706749E-3
7.823289750E0,-1.774015993E-2
7.833224750E0,-4.264374375E-3
7.843159750E0,1.249444004E-2
7.853094750E0,-5.200952142E-3
7.863029750E0,6.270060707E-3
7.872964750E0,6.143230945E-4
7.882899750E0,-1.639535515E-2
7.892834750E0,-3.270766156E-2
7.902769750E0,-1.036574291E-2
7.912703750E0,-5.117117688E-3
7.922638750E0,3.233016897E-3
7.932573750E0,1.906084495E-2
7.942508750E0,-5.115655884E-3
7.952443750E0,-8.671841081E-3
7.962378750E0,-1.861177878E-2
7.972313750E0,-1.087635102E-2
7.982248750E0,1.424454823E-2
7.992183750E0,4.863385074E-3
8.002118750E0,-3.207179513E-3
8.012053750E0,-1.435226491E-2
8.021988750E0,-8.305750564E-3
8.031922750E0,4.519349523E-4
8.041857750E0,-6.518384647E-3
8.051792750E0,3.280324526E-3
8.061727750E0,-4.822509382E-3
8.071662750E0,1.857770048E-4
8.081597750E0,-5.116313696E-7
8.091532750E0,6.435025278E-3
8.101467750E0,5.043406226E-3
8.111402750E0,-7.194450684E-4
8.121337750E0,4.412637837E-4
8.131272750E0,-6.861470025E-3
8.141207750E0,-2.094363011E-2
8.151141750E0,-5.496967435E-3
8.161076750E0,6.108494829E-3
8.171011750E0,1.618010452E-2
8.180946750E0,-7.351247426E-3
8.190881750E0,-1.391913241E-2
8.200816750E0,-9.606682956E-3
8.210751750E0,3.827094007E-3
8.220686750E0,-7.908468805E-3
8.230621750E0,-2.310724609E-2
8.240556750E0,-1.627990918E-2
8.250491750E0,-3.386524580E-3
8.260426750E0,8.301072791E-3
8.270360750E0,1.132240221E-2
8.280295750E0,-1.047652937E-2
8.290230750E0,1.222303787E-2
8.300165750E0,1.492136344E-4
8.310100750E0,-3.561210148E-3
8.320035750E0,1.096352935E-6
8.329970750E0,3.258708101E-3
8.339905750E0,-1.673160659E-2
8.349840750E0,-8.477914520E-3
8.359775750E0,3.639763836E-3
8.369710750E0,1.519143172E-3
8.379645750E0,3.324233461E-3
8.389580750E0,-8.236095607E-3
8.399514750E0,-9.025853444E-3
8.409449750E0,-1.464142799E-3
8.419384750E0,-5.601998046E-3
8.429319750E0,7.171080094E-3
8.439254750E0,-5.563205425E-3
8.449189750E0,-1.500132412E-2
8.459124750E0,-6.080830190E-3
8.469059750E0,-6.283746846E-4
8.478994750E0,-1.080969276E-2
8.488929750E0,9.926068839E-3
8.498864750E0,9.243771862E-3
8.508799750E0,-7.220123615E-3
8.518733750E0,7.850526553E-3
8.528668750E0,-1.175184365E-2
8.538603750E0,3.051935937E-3
8.548538750E0,-9.433751553E-4
8.558473750E0,9.901601896E-3
8.568408750E0,1.042505560E-2
8.578343750E0,1.170283668E-3
8.588278750E0,-2.944694348E-3
8.598213750E0,1.190493107E-3
8.608148750E0,9.739341661E-3
8.618083750E0,2.888469715E-3
8.628018750E0,4.756636843E-3
8.637953750E0,-1.782432329E-3
8.647887750E0,-2.172869191E-2
8.657822125E0,-6.737965867E-3
8.667757125E0,1.067919021E-2
8.677692125E0,7.330690809E-3
8.687627125E0,-1.832499113E-3
8.697562125E0,1.256990567E-2
8.707497125E0,-7.784197200E-3
8.717432125E0,-1.384973327E-2
8.727367125E0,-4.236673191E-3
8.737302125E0,-1.984197814E-3
8.747237125E0,-1.642994508E-3
8.757172125E0,-4.362461418E-3
8.767106125E0,-8.050738871E-3
8.777041125E0,-1.681054400E-2
8.786976125E0,-7.251680307E-3
8.796911125E0,-1.160102203E-2
8.806846125E0,6.038711965E-3
8.816781125E0,-2.418189123E-4
8.826716125E0,-1.815779731E-3
8.836651125E0,1.027160274E-2
8.846586125E0,-3.288528901E-3
8.856521125E0,1.657502912E-4
8.866456125E0,1.115624992E-2
8.876391125E0,1.392386500E-3
8.886326125E0,4.132702388E-3
8.896260125E0,2.205343165E-2
8.906195125E0,-1.531742094E-2
8.916130125E0,3.638101034E-3
8.926065125E0,-3.071250021E-3
8.936000125E0,4.271080401E-3
8.945935125E0,2.457109652E-3
8.955870125E0,-3.688167818E-3
8.965805125E0,1.713095315E-2
8.975740125E0,8.095287345E-4
8.985675125E0,6.348066218E-4
8.995610125E0,-6.579031236E-3
9.005545125E0,-1.495626401E-2
9.015480125E0,7.527961247E-3
9.025414125E0,-1.466244143E-3
9.035349125E0,2.288636751E-4
9.045284125E0,-9.434994087E-3
9.055219125E0,2.186412804E-2
9.065154125E0,1.458529472E-2
9.075089125E0,3.160657603E-3
9.085024125E0,-4.060379639E-3
9.094959125E0,-1.229634734E-2
9.104894125E0,-5.369680859E-3
9.114829125E0,2.314348055E-2
9.124764125E0,7.464628592E-3
9.134699125E0,1.073475704E-3
9.144634125E0,1.115078643E-2
9.154568125E0,-1.049392484E-4
9.164503125E0,-3.259822726E-5
9.174438125E0,8.285614215E-3
9.184373125E0,-2.200161070E-2
9.194308125E0,1.377958495E-2
9.204243125E0,8.938693386E-3
9.214178125E0,7.363033220E-3
9.224113125E0,1.867193202E-2
9.234048125E0,1.546067772E-2
9.243983125E0,-1.960607953E-3
9.253918125E0,1.752392258E-3
9.263853125E0,3.714571651E-3
9.273788125E0,-2.476844005E-4
9.283722125E0,8.948122021E-3
9.293657125E0,6.428794339E-3
9.303592125E0,2.814191803E-3
9.313527125E0,-1.350589871E-2
9.323462125E0,9.534067847E-4
9.333397125E0,2.471691146E-3
9.343332125E0,-1.891420774E-2
9.353267125E0,4.101675600E-3
9.363202125E0,1.854501089E-2
9.373137125E0,-5.841660798E-3
9.383072125E0,-9.470662102E-3
9.393007125E0,4.442001823E-3
9.402942125E0,-6.493734978E-3
9.412876125E0,-1.052491508E-2
9.422811125E0,7.301728819E-3
9.432746125E0,4.014734812E-3
9.442681125E0,5.734638479E-3
9.452616125E0,1.081630742E-2
9.462551125E0,9.184148535E-4
9.472486125E0,2.163360156E-3
9.482421125E0,2.990302630E-4
9.492356125E0,-2.483933754E-3
9.502291125E0,5.216684807E-3
9.512226125E0,1.213947751E-2
9.522161125E0,-6.831886768E-3
9.532096125E0,-1.240230985E-3
9.542031125E0,7.087044641E-3
9.551965125E0,3.460692856E-3
9.561900125E0,4.760419261E-3
9.571835125E0,3.462538384E-3
9.581770125E0,9.970964491E-4
9.591705125E0,5.101622567E-3
9.601640125E0,3.759869300E-3
9.611575125E0,-1.273852475E-3
9.621510125E0,1.209368650E-3
9.631445125E0,-1.700591410E-2
9.641380125E0,-4.602288622E-3
9.651315250E0,7.141332384E-3
9.661250250E0,2.044990584E-3
9.671185250E0,-2.819856293E-3
9.681119250E0,-2.042688243E-3
9.691054250E0,2.076291461E-3
9.700989250E0,7.259135507E-4
9.710924250E0,8.811205812E-4
9.720859250E0,7.631182875E-3
9.730794250E0,-1.641485196E-2
9.740729250E0,-1.081003994E-3
9.750664250E0,7.788326796E-3
9.760599250E0,1.486261720E-2
9.770534250E0,4.384973198E-3
9.780469250E0,2.059188355E-3
9.790404250E0,1.257571634E-3
9.800339250E0,8.783504628E-3
9.810274250E0,8.865986913E-3
9.820208250E0,-1.268761743E-2
9.830143250E0,-4.632091150E-5
9.840078250E0,-6.113757323E-3
9.850013250E0,-1.155921444E-3
9.859948250E0,4.034213349E-3
9.869883250E0,1.115053061E-2
9.879818250E0,1.129755154E-3
9.889753250E0,-6.473050453E-3
9.899688250E0,-8.078293875E-4
9.909623250E0,-5.861230697E-3
9.919558250E0,-2.992276065E-3
9.929493250E0,1.734430343E-3
9.939428250E0,1.000137001E-2
9.949362250E0,-1.382409688E-3
9.959297250E0,-2.209516615E-3
9.969232250E0,-4.889112823E-3
9.979167250E0,-1.585200263E-2
9.989102250E0,1.827930976E-3
9.999037250E0,3.907164317E-3
1.000897225E1,3.433302306E-3
1.001890725E1,-1.532876819E-2
1.002884225E1,-9.395890832E-3
1.003877725E1,2.044625133E-3
1.004871225E1,-1.258430444E-3
1.005864725E1,-9.778518006E-3
1.006858225E1,-1.627802711E-2
1.007851625E1,1.422128728E-2
1.008845125E1,-2.154077701E-3
1.009838625E1,-7.685909159E-3
1.010832125E1,1.277477749E-2
1.011825625E1,-2.605336569E-3
1.012819125E1,-6.755306516E-3
1.013812625E1,9.577355515E-3
1.014806125E1,4.484339319E-3
1.015799625E1,3.503139988E-3
1.016793125E1,2.694561426E-3
1.017786625E1,-3.914710879E-4
1.018780125E1,9.789700806E-4
1.019773625E1,-1.417200621E-3
1.020767125E1,-3.370828461E-3
1.021760525E1,4.233603403E-3
1.022754025E1,2.107135523E-3
1.023747525E1,3.184722550E-4
1.024741025E1,2.220516689E-3
1.025734525E1,-5.017514024E-3
1.026728025E1,-1.100100635E-2
1.027721525E1,-2.237473615E-3
1.028715025E1,-1.505977800E-2
1.029708525E1,-3.309542332E-3
1.030702025E1,-7.513745204E-3
1.031695525E1,1.687524710E-3
1.032689025E1,-1.965468451E-3
1.033682525E1,9.831343945E-3
1.034675925E1,7.774348296E-3
1.035669425E1,-8.744858187E-3
1.036662925E1,-1.088749727E-2
1.037656425E1,-5.196712911E-3
1.038649925E1,-2.834017519E-3
1.039643425E1,-1.937730722E-3
1.040636925E1,-5.114395078E-3
1.041630425E1,-1.072593139E-2
1.042623925E1,6.031348128E-3
1.043617425E1,-7.552409917E-3
1.044610925E1,-1.609226838E-3
1.045604425E1,1.324642852E-2
1.046597925E1,-8.596028276E-3
1.047591425E1,-1.277422931E-2
1.048584825E1,1.372635702E-2
1.049578325E1,1.086851209E-2
1.050571825E1,-4.882315435E-3
1.051565325E1,3.526474033E-3
1.052558825E1,1.114356877E-2
1.053552325E1,1.549548693E-3
1.054545825E1,-7.734605502E-3
1.055539325E1,8.699268177E-3
1.056532825E1,-7.870352268E-3
1.057526325E1,8.041145783E-3
1.058519825E1,-1.490948629E-3
1.059513325E1,1.924695086E-2
1.060506825E1,-1.489084829E-3
1.061500225E1,-8.722711857E-3
1.062493725E1,-1.513814896E-2
1.063487225E1,5.553484429E-3
1.064480725E1,-1.404682098E-2
1.065474250E1,-8.868764341E-3
1.066467750E1,-1.321891006E-3
1.067461250E1,-2.958142944E-4
1.068454750E1,4.468076751E-3
1.069448250E1,4.762447514E-3
1.070441750E1,-6.013313122E-3
1.071435250E1,7.557197325E-3
1.072428750E1,1.146017723E-3
1.073422250E1,-2.090445377E-2
1.074415750E1,2.228593156E-3
1.075409150E1,-6.441438943E-4
1.076402650E1,6.713078655E-3
1.077396150E1,1.562330341E-2
1.078389650E1,-4.277073797E-3
1.079383150E1,-1.502076611E-3
1.080376650E1,7.705844510E-3
1.081370150E1,-1.017260207E-2
1.082363650E1,-2.206227556E-3
1.083357150E1,-2.108451147E-3
1.084350650E1,-6.213963982E-3
1.085344150E1,2.073057219E-3
1.086337650E1,1.575057171E-2
1.087331150E1,-1.368754612E-2
1.088324550E1,-7.890927158E-3
1.089318050E1,-2.554495029E-2
1.090311550E1,-1.076984033E-2
1.091305050E1,6.644629687E-4
1.092298550E1,7.983587254E-3
1.093292050E1,4.078853186E-3
1.094285550E1,9.499002825E-3
1.095279050E1,5.296736844E-3
1.096272550E1,-3.783641886E-3
1.097266050E1,-1.331345223E-2
1.098259550E1,-8.576513194E-3
1.099253050E1,-7.906477097E-3
1.100246550E1,4.391660951E-3
1.101239950E1,-2.406001333E-3
1.102233450E1,-2.436514663E-2
1.103226950E1,-1.121388154E-2
1.104220450E1,-2.405745517E-3
1.105213950E1,-1.333927134E-2
1.106207450E1,-5.366830342E-4
1.107200950E1,8.768685590E-3
1.108194450E1,-2.813533992E-3
1.109187950E1,-9.437131975E-3
1.110181450E1,6.478130221E-3
1.111174950E1,-1.478103027E-3
1.112168450E1,-6.665369030E-3
1.113161950E1,-6.615612879E-3
1.114155350E1,-1.181905009E-3
1.115148850E1,-8.675769679E-3
1.116142350E1,-6.255771574E-3
1.117135850E1,-1.465648457E-2
1.118129350E1,1.870942729E-2
1.119122850E1,2.434890233E-3
1.120116350E1,-6.095886771E-3
1.121109850E1,-6.602091193E-3
1.122103350E1,-1.272134855E-3
1.123096850E1,-1.454604529E-3
1.124090350E1,-1.363501254E-2
1.125083850E1,5.104436539E-3
1.126077350E1,7.757245190E-4
1.127070750E1,-1.603964344E-3
1.128064250E1,-1.796063650E-3
1.129057750E1,-5.476922449E-3
1.130051250E1,3.603986185E-3
1.131044750E1,3.633423261E-3
1.132038250E1,-1.626198381E-2
1.133031750E1,-1.035845216E-2
1.134025250E1,-1.203563461E-2
1.135018750E1,-1.819299024E-2
1.136012250E1,1.067756396E-3
1.137005750E1,-8.073378559E-3
1.137999250E1,-2.321044944E-2
1.138992750E1,5.745108649E-3
1.139986150E1,1.925798748E-2
1.140979650E1,-1.547984563E-2
1.141973150E1,-6.655849032E-3
1.142966650E1,-8.452661857E-3
1.143960150E1,-4.816844892E-3
1.144953650E1,-1.770646535E-3
1.145947150E1,-9.822463486E-3
1.146940650E1,1.647343375E-3
1.147934150E1,-2.634755373E-3
1.148927650E1,-2.341042422E-3
1.149921150E1,-2.126157247E-3
1.150914650E1,1.278448021E-2
1.151908150E1,1.170221541E-2
1.152901650E1,1.442106105E-3
1.153895050E1,1.289104572E-2
1.154888550E1,1.892871615E-3
1.155882050E1,-7.181111723E-3
1.156875550E1,1.215910222E-3
1.157869050E1,8.945033960E-3
1.158862550E1,1.130347185E-2
1.159856050E1,-3.764912523E-3
1.160849550E1,3.839939609E-3
1.161843050E1,-4.061439447E-4
1.162836550E1,1.168686647E-2
1.163830050E1,-3.919333834E-3
1.164823550E1,-2.659697402E-3
1.165817025E1,1.241743952E-2
1.166810425E1,-7.837680951E-3
1.167803925E1,-7.451983988E-3
1.168797425E1,6.232802980E-3
1.169790925E1,7.141186204E-3
1.170784425E1,5.699573457E-4
1.171777925E1,-2.418536302E-2
1.172771425E1,-8.258808386E-3
1.173764925E1,-1.476347035E-2
1.174758425E1,1.120341137E-2
1.175751925E1,3.540123627E-4
1.176745425E1,-2.915750630E-4
1.177738925E1,1.281930769E-2
1.178732425E1,6.919247825E-3
1.179725825E1,-5.192985311E-3
1.180719325E1,-9.625448864E-3
1.181712825E1,-1.476641223E-3
1.182706325E1,-5.840655807E-3
1.183699825E1,-2.959074844E-3
1.184693325E1,-1.165794102E-2
1.185686825E1,-1.143740963E-2
1.186680325E1,-1.220573377E-2
1.187673825E1,1.332326459E-2
1.188667325E1,1.590261759E-2
1.189660825E1,-6.915026866E-3
1.190654325E1,3.597225342E-3
1.191647725E1,-6.154304110E-3
1.192641225E1,-5.388812218E-3
1.193634725E1,6.800165623E-3
1.194628225E1,-1.189500907E-2
1.195621725E1,-1.526673289E-2
1.196615225E1,9.241140615E-3
1.197608725E1,5.133197531E-3
1.198602225E1,1.108230092E-2
1.199595725E1,8.789169118E-3
1.200589225E1,5.275632050E-3
1.201582725E1,3.779768106E-3
1.202576225E1,4.996847771E-3
1.203569725E1,4.183043260E-3
1.204563125E1,3.978207987E-3
1.205556625E1,-1.404526781E-2
1.206550125E1,4.154464994E-3
1.207543625E1,4.745015502E-3
1.208537125E1,2.815251611E-3
1.209530625E1,-7.095833737E-3
1.210524125E1,-3.307824712E-3
1.211517625E1,8.938565478E-3
1.212511125E1,-6.868669409E-3
1.213504625E1,-8.065375183E-3
1.214498125E1,-9.678238258E-4
1.215491625E1,-1.450109482E-4
1.216485125E1,1.113379296E-2
1.217478525E1,1.302147517E-2
1.218472025E1,7.815699074E-3
1.219465525E1,-9.254242033E-3
1.220459025E1,-5.298929550E-3
1.221452525E1,6.391737610E-3
1.222446025E1,5.043771677E-4
1.223439525E1,1.218006084E-2
1.224433025E1,2.301975712E-4
1.225426525E1,6.833604388E-3
1.226420025E1,5.133307166E-4
1.227413525E1,-1.355587414E-2
1.228407025E1,-1.848268323E-4
1.229400525E1,1.758818714E-2
1.230393925E1,2.147718854E-3
1.231387425E1,-2.285106495E-2
1.232380925E1,-2.802716643E-3
1.233374425E1,3.601519391E-3
1.234367925E1,1.403953023E-2
1.235361425E1,-8.336539809E-3
1.236354925E1,-2.747825906E-3
1.237348425E1,-4.322206993E-3
1.238341925E1,9.691211767E-4
1.239335425E1,5.873582941E-3
1.240328925E1,-3.757731412E-3
1.241322425E1,6.577222254E-3
1.242315925E1,1.078478727E-2
1.243309325E1,-1.113181952E-3
1.244302825E1,1.241252420E-2
1.245296325E1,7.593852058E-3
1.246289825E1,4.276562165E-3
1.247283325E1,-4.098039363E-3
1.248276825E1,6.673628222E-3
1.249270325E1,-1.043205399E-2
1.250263825E1,-6.320858393E-3
1.251257325E1,1.636198947E-2
1.252250825E1,-1.493378878E-3
1.253244325E1,9.027406611E-3
1.254237825E1,9.864161443E-3
1.255231225E1,1.526057504E-2
1.256224725E1,-1.111519150E-3
1.257218225E1,-7.507824898E-4
1.258211725E1,4.121665768E-3
1.259205225E1,-3.298560530E-4
1.260198725E1,-1.083490888E-2
1.261192225E1,-5.192985311E-3
1.262185725E1,-5.171716064E-3
1.263179225E1,6.881076470E-4
1.264172725E1,1.843261644E-3
1.265166225E1,2.985588312E-3
1.266159763E1,1.712486839E-2
1.267153262E1,1.253336057E-2
1.268146662E1,1.079955149E-2
1.269140162E1,-4.734051973E-3
1.270133663E1,1.385706056E-2
1.271127162E1,2.718955278E-3
1.272120663E1,3.117223755E-3
1.273114163E1,5.411433633E-3
1.274107662E1,1.596728414E-3
1.275101163E1,3.652280532E-3
1.276094662E1,-9.723371454E-4
1.277088162E1,-1.127617266E-3
1.278081663E1,7.929500509E-3
1.279075162E1,-8.815956675E-4
1.280068663E1,-8.198106978E-3
1.281062062E1,-2.261849195E-3
1.282055563E1,3.732332569E-3
1.283049062E1,6.351026371E-3
1.284042563E1,2.436205857E-3
1.285036063E1,-1.113485277E-2
1.286029562E1,-3.131640796E-3
1.287023063E1,-3.378375024E-3
1.288016562E1,6.493150257E-3
1.289010062E1,1.277538048E-2
1.290003563E1,4.631177522E-4
1.290997062E1,-1.104672426E-2
1.291990563E1,8.748202063E-3
1.292983962E1,4.348428100E-3
1.293977463E1,-4.027945865E-3
1.294970962E1,-1.174120903E-3
1.295964463E1,4.773593768E-3
1.296957963E1,-8.782865088E-3
1.297951462E1,-4.680750947E-3
1.298944963E1,5.101348478E-3
1.299938462E1,1.438038636E-2
1.300931962E1,1.079699334E-2
1.301925463E1,1.187039595E-3
1.302918962E1,-1.252197677E-2
1.303912463E1,-1.368796639E-4
1.304905963E1,1.640410770E-2
1.305899363E1,-1.211926807E-3
1.306892862E1,1.610286646E-3
1.307886363E1,-1.201418264E-2
1.308879863E1,5.415892135E-3
1.309873362E1,6.186902337E-4
1.310866863E1,-1.636251938E-3
1.311860363E1,8.785222247E-3
1.312853862E1,-3.020890877E-3
1.313847363E1,-1.073176034E-2
1.314840862E1,-1.445475563E-2
1.315834363E1,7.686347701E-3
1.316827863E1,1.718487544E-2
1.317821263E1,-1.765091680E-3
1.318814762E1,-1.557259709E-3
1.319808263E1,-7.159184664E-5
1.320801763E1,5.185749382E-3
1.321795262E1,8.753665555E-3
1.322788763E1,3.267332744E-3
1.323782263E1,-6.121651065E-3
1.324775762E1,-6.936022025E-3
1.325769263E1,2.122696426E-2
1.326762762E1,1.015754549E-2
1.327756263E1,9.382222965E-3
1.328749763E1,1.411152408E-3
1.329743163E1,-2.423305437E-4
1.330736662E1,-2.122791443E-2
1.331730163E1,-1.032205325E-2
1.332723663E1,1.248758784E-2
1.333717162E1,-1.438780501E-3
1.334710663E1,-3.715174645E-3
1.335704163E1,-2.846917938E-3
1.336697662E1,1.557212200E-2
1.337691163E1,7.023182083E-3
1.338684662E1,-1.364879005E-2
1.339678162E1,-1.400483066E-2
1.340671663E1,-8.316823728E-3
1.341665162E1,2.992075067E-3
1.342658663E1,-1.273596659E-3
1.343652063E1,-5.282465983E-3
1.344645563E1,5.439609904E-3
1.345639062E1,1.831439305E-3
1.346632563E1,5.016289763E-3
1.347626063E1,6.640463546E-3
1.348619562E1,7.867794111E-4
1.349613063E1,1.141851582E-4
1.350606562E1,1.139366515E-3
1.351600062E1,8.357078154E-3
1.352593563E1,-4.341356624E-3
1.353587062E1,-4.732827712E-3
1.354580563E1,-5.842355154E-3
1.355573962E1,-2.595761754E-3
1.356567463E1,8.603775837E-3
1.357560962E1,5.676349048E-3
1.358554463E1,-2.892343495E-3
1.359547963E1,-2.828627117E-3
1.360541462E1,1.929906417E-2
1.361534963E1,9.122972041E-3
1.362528462E1,2.232205639E-2
1.363521962E1,1.864731889E-3
1.364515463E1,-1.245014738E-2
1.365508937E1,2.150094286E-3
1.366502438E1,2.807759866E-3
1.367495937E1,9.462439455E-4
1.368489338E1,-3.912554719E-3
1.369482837E1,2.883061040E-3
1.370476338E1,1.180300679E-2
1.371469837E1,7.561509646E-3
1.372463337E1,1.936616097E-2
1.373456838E1,-3.775711600E-3
1.374450337E1,9.592960272E-3
1.375443838E1,-7.559152488E-3
1.376437338E1,-2.997264471E-3
1.377430837E1,5.477982257E-3
1.378424338E1,8.846508376E-3
1.379417837E1,3.418556359E-3
1.380411337E1,1.491378034E-2
1.381404737E1,3.332547471E-3
1.382398238E1,6.139284074E-3
1.383391737E1,1.290206406E-3
1.384385237E1,2.910214048E-3
1.385378738E1,-1.112752547E-2
1.386372237E1,1.535878999E-2
1.387365738E1,-1.046300769E-2
1.388359238E1,-3.618275318E-3
1.389352737E1,6.670339163E-3
1.390346238E1,4.116823543E-3
1.391339737E1,7.678728048E-3
1.392333237E1,6.913181338E-3
1.393326637E1,2.011241186E-3
1.394320138E1,2.058645660E-2
1.395313637E1,3.242810983E-3
1.396307137E1,5.209704693E-3
1.397300638E1,8.181533776E-3
1.398294137E1,-1.743798679E-2
1.399287638E1,-5.332697220E-3
1.400281138E1,1.491144145E-2
1.401274637E1,9.425346181E-3
1.402268138E1,9.109432083E-3
1.403261637E1,-2.651895024E-3
1.404255137E1,1.070447942E-2
1.405248638E1,-1.657210551E-3
1.406242137E1,-7.885390576E-3
1.407235537E1,5.943749528E-3
1.408229037E1,-6.767366398E-3
1.409222538E1,2.536869328E-3
1.410216037E1,2.850334905E-4
1.411209538E1,-1.791616112E-2
1.412203038E1,1.175290346E-3
1.413196537E1,-2.163451519E-3
1.414190038E1,3.231281005E-3
1.415183537E1,1.460396927E-3
1.416177037E1,4.412893653E-3
1.417170538E1,1.015160691E-2
1.418164037E1,7.392872293E-3
1.419157437E1,6.361953355E-4
1.420150937E1,-5.636752434E-3
1.421144438E1,-5.885039829E-4
1.422137937E1,9.691613764E-3
1.423131438E1,2.713181153E-3
1.424124938E1,-1.556070166E-2
1.425118437E1,-5.518090501E-3
1.426111938E1,-9.319657758E-3
1.427105437E1,-4.052467626E-3
1.428098937E1,6.468372680E-3
1.429092438E1,-9.315089621E-3
1.430085937E1,1.146872878E-2
1.431079438E1,8.796514682E-3
1.432072837E1,-4.339693822E-3
1.433066338E1,-8.135158047E-3
1.434059837E1,7.960362844E-3
1.435053338E1,1.385020835E-2
1.436046838E1,1.225786535E-2
1.437040337E1,-4.056158680E-3
1.438033838E1,1.996842418E-3
1.439027338E1,9.427082073E-3
1.440020837E1,6.883451901E-3
1.441014338E1,-1.075482029E-2
1.442007837E1,1.069351589E-2
1.443001338E1,1.661320047E-2
1.443994838E1,9.550732411E-3
1.444988337E1,-3.182913568E-3
1.445981737E1,9.048748948E-4
1.446975238E1,-2.470046617E-3
1.447968738E1,1.044568531E-2
1.448962237E1,2.130597476E-3
1.449955738E1,1.534546930E-3
1.450949238E1,-4.109368343E-3
1.451942737E1,9.897472300E-3
1.452936238E1,4.107742086E-3
1.453929737E1,-8.409648277E-3
1.454923238E1,2.002123185E-4
1.455916738E1,1.232912829E-2
1.456910237E1,-1.967063645E-2
1.457903738E1,-9.196665231E-3
1.458897138E1,-6.224927511E-3
1.459890638E1,4.617582746E-3
1.460884137E1,-1.769968623E-2
1.461877638E1,6.834700741E-3
1.462871138E1,3.191519938E-3
1.463864637E1,7.010610569E-3
1.464858138E1,1.883781021E-2
1.465851667E1,2.843298147E-2
1.466845167E1,1.402937070E-2
1.467838667E1,-1.695288716E-2
1.468832167E1,1.185586927E-2
1.469825667E1,1.078855142E-2
1.470819167E1,-1.658763718E-3
1.471812567E1,1.489813903E-2
1.472806067E1,8.598074801E-3
1.473799567E1,6.193407364E-3
1.474793067E1,1.337963540E-2
1.475786567E1,2.716269214E-3
1.476780067E1,9.272642490E-3
1.477773567E1,1.799590252E-3
1.478767067E1,1.035549201E-2
1.479760567E1,1.236538103E-2
1.480754067E1,8.529680651E-3
1.481747567E1,8.113066535E-3
1.482741067E1,4.035528973E-3
1.483734567E1,-3.300022334E-4
1.484727967E1,-2.423707433E-3
1.485721467E1,-1.720232572E-3
1.486714967E1,-1.262505222E-3
1.487708467E1,-3.258945644E-3
1.488701967E1,1.940361969E-4
1.489695467E1,-6.347518042E-3
1.490688967E1,1.524365466E-2
1.491682467E1,-1.657868363E-3
1.492675967E1,2.630260326E-3
1.493669467E1,1.417266402E-2
1.494662967E1,7.477711737E-3
1.495656467E1,1.820459330E-2
1.496649967E1,2.360265143E-3
1.497643367E1,-4.669367149E-4
1.498636867E1,-2.715136316E-3
1.499630367E1,2.113987729E-3
1.500623867E1,1.179670276E-2
1.501617367E1,2.733262684E-3
1.502610867E1,8.806820400E-4
1.503604367E1,4.551015850E-3
1.504597867E1,6.872671098E-3
1.505591367E1,2.852127442E-2
1.506584867E1,-4.433103092E-3
1.507578367E1,-4.924634658E-3
1.508571867E1,-6.883780807E-3
1.509565367E1,1.505243244E-2
1.510558767E1,-1.019849427E-2
1.511552267E1,-1.039914513E-2
1.512545767E1,4.381958228E-3
1.513539267E1,-3.999513779E-3
1.514532767E1,3.141051158E-4
1.515526267E1,-6.634451877E-3
1.516519767E1,-1.433152556E-2
1.517513267E1,2.178709097E-3
1.518506767E1,-5.881239139E-3
1.519500267E1,-8.140548449E-3
1.520493767E1,5.697563477E-3
1.521487267E1,-3.499412388E-3
1.522480767E1,3.887429964E-3
1.523474267E1,5.656998418E-4
1.524467667E1,1.466331851E-2
1.525461167E1,6.084886696E-3
1.526454667E1,2.926165983E-4
1.527448167E1,6.960324515E-3
1.528441667E1,6.073923167E-3
1.529435167E1,-5.395335518E-4
1.530428667E1,9.400239699E-3
1.531422167E1,9.888098482E-3
1.532415667E1,1.126625067E-2
1.533409167E1,-1.392689824E-2
1.534402667E1,-3.345831614E-3
1.535396167E1,1.650281601E-2
1.536389667E1,1.413999271E-2
1.537383067E1,1.779627493E-2
1.538376567E1,7.917129993E-3
1.539370067E1,-4.294323083E-3
1.540363567E1,-4.087185469E-3
1.541357067E1,6.523574051E-3
1.542350567E1,2.745048478E-3
1.543344067E1,4.920943603E-3
1.544337567E1,-6.626996677E-3
1.545331067E1,-2.921232395E-2
1.546324567E1,8.451273143E-3
1.547318067E1,1.101535030E-2
1.548311567E1,-3.608115781E-3
1.549305067E1,-1.982114743E-3
1.550298567E1,2.587575652E-4
1.551291967E1,4.445089884E-3
1.552285467E1,7.077999730E-3
1.553278967E1,8.428596910E-3
1.554272467E1,2.580796536E-3
1.555265967E1,-6.715655085E-3
1.556259467E1,-1.590338504E-2
1.557252967E1,-1.309367001E-2
1.558246467E1,-4.213649780E-5
1.559239967E1,-9.654538762E-3
1.560233467E1,2.231809124E-3
1.561226967E1,-5.392667726E-3
1.562220467E1,7.885226123E-3
1.563213967E1,5.800437927E-3
1.564207367E1,-6.103762239E-3
1.565200867E1,-2.186694201E-3
1.566194350E1,-3.651768900E-3
1.567187850E1,-1.560621858E-2
1.568181350E1,-1.154185552E-2
1.569174850E1,-2.631740402E-3
1.570168350E1,-9.126992002E-3
1.571161850E1,-9.351525083E-4
1.572155350E1,-1.813915931E-3
1.573148850E1,-1.243812405E-4
1.574142350E1,-1.123829367E-2
1.575135850E1,-2.328543998E-3
1.576129350E1,-5.322793499E-5
1.577122850E1,1.917704009E-3
1.578116250E1,-3.158391807E-3
1.579109750E1,-4.629532993E-3
1.580103250E1,-6.784177143E-3
1.581096750E1,1.869228764E-2
1.582090250E1,1.037464164E-2
1.583083750E1,1.899541095E-3
1.584077250E1,-2.751352508E-3
1.585070750E1,7.259135507E-4
1.586064250E1,-1.346789181E-2
1.587057750E1,-5.829984639E-3
1.588051250E1,1.041149737E-2
1.589044750E1,1.673692390E-2
1.590038250E1,1.050907278E-2
1.591031650E1,-1.847354695E-5
1.592025150E1,-7.475957572E-3
1.593018650E1,1.747924620E-2
1.594012150E1,8.481806573E-3
1.595005650E1,-9.752552714E-3
1.595999150E1,-9.212781619E-3
1.596992650E1,1.229559816E-4
1.597986150E1,-7.293926440E-3
1.598979650E1,4.667320624E-3
1.599973150E1,-7.535270266E-3
1.600966650E1,3.420054708E-3
1.601960150E1,1.048272377E-2
1.602953650E1,3.561776597E-3
1.603947150E1,-5.968910828E-4
1.604940550E1,6.730145216E-4
1.605934050E1,6.578848511E-4
1.606927550E1,6.781015992E-3
1.607921050E1,-6.027858071E-3
1.608914550E1,-2.564369515E-4
1.609908050E1,-8.716645371E-3
1.610901550E1,5.269072205E-3
1.611895050E1,7.431664914E-3
1.612888550E1,4.411249124E-3
1.613882050E1,-8.673613518E-4
1.614875550E1,-7.608305644E-3
1.615869050E1,-7.780853324E-3
1.616862550E1,-5.769977588E-3
1.617856050E1,-4.080844894E-3
1.618849450E1,9.970635585E-3
1.619842950E1,-9.659435805E-3
1.620836450E1,7.290198840E-4
1.621829950E1,1.825420327E-2
1.622823450E1,8.292210605E-3
1.623816950E1,3.311588857E-3
1.624810450E1,-1.699219141E-2
1.625803950E1,8.774843439E-3
1.626797450E1,1.476749031E-2
1.627790950E1,4.184285793E-3
1.628784450E1,3.209609762E-3
1.629777950E1,1.053920422E-2
1.630771450E1,-1.064052550E-2
1.631764950E1,1.317991644E-2
1.632758350E1,-5.476721451E-3
1.633751850E1,1.602319814E-4
1.634745350E1,5.202194676E-4
1.635738850E1,6.342602726E-3
1.636732350E1,1.488280836E-3
1.637725850E1,5.222806111E-3
1.638719350E1,-1.875900071E-2
1.639712850E1,-1.144656418E-2
1.640706350E1,8.104387075E-3
1.641699850E1,-3.006656561E-3
1.642693350E1,-9.341584817E-3
1.643686850E1,2.673054636E-3
1.644680350E1,-4.605285320E-3
1.645673850E1,9.105667938E-3
1.646667350E1,-8.669831101E-3
1.647660750E1,-8.215374537E-3
1.648654250E1,3.209116403E-3
1.649647750E1,2.221448589E-2
1.650641250E1,1.038061677E-2
1.651634750E1,4.633936677E-3
1.652628250E1,1.091097750E-2
1.653621750E1,5.308248550E-3
1.654615250E1,7.467552200E-3
1.655608750E1,-7.181294449E-4
1.656602250E1,1.684411068E-2
1.657595750E1,-6.711361036E-3
1.658589250E1,-1.319499129E-2
1.659582750E1,-1.995179616E-4
1.660576250E1,7.110451777E-3
1.661569650E1,2.944767438E-3
1.662563150E1,-8.240042478E-3
1.663556650E1,-9.677196722E-3
1.664550150E1,-6.975344550E-3
1.665543650E1,4.935744368E-3
1.666537079E1,4.740264639E-4
1.667530579E1,4.763087053E-3
1.668524079E1,-5.841660798E-3
1.669517579E1,-9.622452166E-3
1.670511079E1,-3.640129287E-3
1.671504579E1,-8.764208816E-3
1.672498079E1,1.644432558E-2
1.673491579E1,-4.849406574E-3
1.674485079E1,-1.049520392E-3
1.675478579E1,-1.672336567E-2
1.676471979E1,6.628147848E-3
1.677465479E1,7.797828522E-3
1.678458979E1,-3.863511197E-3
1.679452479E1,-8.214077186E-3
1.680445979E1,4.305012524E-4
1.681439479E1,-2.866597474E-4
1.682432979E1,1.119284984E-3
1.683426479E1,1.252374921E-2
1.684419979E1,9.754434787E-4
1.685413479E1,-8.499202039E-3
1.686406979E1,-4.515329562E-3
1.687400479E1,2.795224898E-3
1.688393979E1,-9.940558970E-3
1.689387479E1,6.035532542E-3
1.690380979E1,-2.520698123E-3
1.691374379E1,1.865389701E-3
1.692367879E1,1.002103128E-3
1.693361379E1,-2.189380266E-3
1.694354879E1,-4.915224295E-3
1.695348379E1,-9.428160153E-3
1.696341879E1,8.812576253E-3
1.697335379E1,1.382627131E-2
1.698328879E1,1.105427083E-2
1.699322379E1,6.958369352E-3
1.700315879E1,1.128220260E-3
1.701309379E1,5.272306446E-3
1.702302879E1,-1.747423952E-2
1.703296379E1,-3.688715994E-3
1.704289879E1,1.466097962E-3
1.705283379E1,8.269936368E-3
1.706276879E1,3.817208558E-3
1.707270279E1,-1.152084209E-4
1.708263779E1,6.370577998E-3
1.709257279E1,-5.357876793E-4
1.710250779E1,2.757638264E-3
1.711244279E1,8.424321134E-3
1.712237779E1,7.776614092E-4
1.713231279E1,4.212005250E-3
1.714224779E1,5.441437159E-3
1.715218279E1,-4.164423533E-3
1.716211779E1,-9.202110451E-3
1.717205279E1,1.016854556E-2
1.718198779E1,-3.480920568E-4
1.719192279E1,1.939795520E-3
1.720185779E1,8.270484544E-3
1.721179279E1,1.425045026E-2
1.722172779E1,8.599006701E-3
1.723166179E1,7.599224187E-3
1.724159679E1,-1.597386226E-3
1.725153179E1,1.743102495E-2
1.726146679E1,3.456234355E-3
1.727140179E1,-8.510256931E-3
1.728133679E1,2.515526991E-3
1.729127179E1,-2.149728835E-3
1.730120679E1,-1.925159208E-3
1.731114179E1,-7.645398919E-3
1.732107679E1,1.199377220E-2
1.733101179E1,1.058086563E-2
1.734094679E1,-1.765806137E-2
1.735088179E1,-9.592905454E-4
1.736081679E1,6.926593389E-3
1.737075179E1,1.014897566E-2
1.738068679E1,-2.769897318E-2
1.739062179E1,1.573229916E-3
1.740055579E1,1.172743153E-2
1.741049079E1,-2.485194560E-3
1.742042579E1,-1.626560178E-2
1.743036079E1,8.033763673E-3
1.744029579E1,1.399487212E-2
1.745023079E1,4.322426263E-3
1.746016579E1,8.603958562E-3
1.747010079E1,-1.478833929E-2
1.748003579E1,-5.991294701E-3
1.748997079E1,5.946618319E-3
1.749990579E1,5.914367270E-3
1.750984079E1,-4.937242717E-5
1.751977579E1,4.257449079E-3
1.752971079E1,-1.601936091E-3
1.753964579E1,6.761263367E-3
1.754958079E1,1.063498892E-3
1.755951479E1,-5.057914630E-3
1.756944979E1,8.705590479E-3
1.757938479E1,1.830215044E-3
1.758931979E1,1.056354325E-3
1.759925479E1,6.770527549E-4
1.760918979E1,4.983161632E-3
1.761912479E1,1.303000845E-2
1.762905979E1,3.572301585E-3
1.763899479E1,1.746234410E-3
1.764892979E1,-1.841171265E-2
1.765886525E1,8.135907222E-3
1.766880025E1,1.780842617E-3
1.767873525E1,7.807275429E-3
1.768867025E1,-2.801108658E-3
1.769860525E1,-3.269525450E-3
1.770854025E1,-1.134323291E-2
1.771847425E1,4.381757230E-3
1.772840925E1,-1.371866427E-3
1.773834425E1,-2.141871639E-3
1.774827925E1,-6.571539491E-4
1.775821425E1,3.392682429E-3
1.776814925E1,3.776405957E-3
1.777808425E1,-3.357197139E-3
1.778801925E1,5.067270175E-3
1.779795425E1,-6.580054499E-3
1.780788925E1,-1.407236600E-2
1.781782425E1,-1.774986265E-2
1.782775925E1,-1.027849149E-3
1.783769425E1,-1.568460781E-3
1.784762925E1,-1.648902023E-2
1.785756425E1,1.252144687E-2
1.786749925E1,3.200254217E-3
1.787743425E1,6.250764895E-3
1.788736825E1,6.083534528E-3
1.789730325E1,-1.345979707E-2
1.790723825E1,-1.843901183E-3
1.791717325E1,1.105626253E-2
1.792710825E1,-2.117623966E-3
1.793704325E1,1.267532000E-2
1.794697825E1,-6.044668816E-3
1.795691325E1,-1.309173312E-3
1.796684825E1,-2.183094509E-3
1.797678325E1,-4.589004479E-3
1.798671825E1,8.648927305E-3
1.799665325E1,6.021937765E-3
1.800658825E1,5.399373751E-3
1.801652325E1,-1.228052331E-2
1.802645825E1,-7.072700690E-3
1.803639225E1,-3.478197958E-3
1.804632725E1,8.386350777E-3
1.805626225E1,1.951508224E-3
1.806619725E1,-1.133683752E-3
1.807613225E1,-3.469774313E-3
1.808606725E1,6.710027140E-3
1.809600225E1,1.831421033E-3
1.810593725E1,-5.325991195E-3
1.811587225E1,1.732895449E-3
1.812580725E1,-1.290882491E-3
1.813574225E1,-7.977703493E-3
1.814567725E1,-2.188046370E-3
1.815561225E1,1.936287191E-2
1.816554725E1,-7.310810275E-3
1.817548225E1,-4.529563878E-3
1.818541725E1,8.695248216E-3
1.819535125E1,-1.073548794E-3
1.820528625E1,6.698625069E-3
1.821522125E1,-1.424502332E-2
1.822515625E1,-1.348903315E-2
1.823509125E1,-3.212661278E-3
1.824502625E1,1.083607832E-2
1.825496125E1,1.804452578E-2
1.826489625E1,1.760139819E-3
1.827483125E1,-8.750869855E-3
1.828476625E1,1.141065862E-2
1.829470125E1,2.419157568E-3
1.830463625E1,-6.515552402E-3
1.831457125E1,1.056061964E-3
1.832450625E1,-8.992926311E-3
1.833444125E1,-4.960247856E-3
1.834437625E1,9.905055407E-3
1.835431025E1,-1.762462260E-2
1.836424525E1,1.338334473E-2
1.837418025E1,1.568289019E-2
1.838411525E1,1.006737046E-2
1.839405025E1,-1.695875265E-2
1.840398525E1,-6.240294725E-3
1.841392025E1,1.328876602E-2
1.842385525E1,1.139147244E-2
1.843379025E1,-5.843305327E-3
1.844372525E1,-3.866489623E-3
1.845366025E1,5.278647020E-3
1.846359525E1,8.239421211E-3
1.847353025E1,9.543131031E-3
1.848346525E1,-1.475270782E-3
1.849340025E1,9.769948181E-3
1.850333525E1,-4.989118483E-3
1.851326925E1,-1.273002801E-2
1.852320425E1,5.057110637E-4
1.853313925E1,1.069079328E-2
1.854307425E1,4.623685777E-3
1.855300925E1,1.284435935E-2
1.856294425E1,1.736507932E-2
1.857287925E1,1.129272759E-2
1.858281425E1,6.550708786E-4
1.859274925E1,1.602484267E-3
1.860268425E1,5.600700695E-3
1.861261925E1,-4.806740172E-3
1.862255425E1,1.094246110E-2
1.863248925E1,2.365783453E-3
1.864242425E1,-8.541667443E-3
1.865235925E1,1.004222743E-2
1.866229325E1,-5.886940174E-3
1.867222825E1,1.991196200E-3
1.868216325E1,8.465068918E-3
1.869209825E1,9.862736184E-3
1.870203325E1,3.886150885E-3
1.871196825E1,8.691027258E-3
1.872190325E1,5.497022253E-3
1.873183825E1,2.127997292E-2
1.874177325E1,1.349531891E-2
1.875170825E1,-3.152562864E-4
1.876164325E1,1.504802875E-2
1.877157825E1,1.756242285E-2
1.878151325E1,5.827426482E-3
1.879144825E1,5.590376705E-3
1.880138325E1,1.909609269E-3
1.881131825E1,2.070846241E-3
1.882125225E1,2.089374606E-3
1.883118725E1,5.434584953E-3
1.884112225E1,1.415720545E-3
1.885105725E1,-6.522642151E-3
1.886099225E1,1.773498880E-2
1.887092725E1,-8.764501177E-3
1.888086225E1,4.691294208E-3
1.889079725E1,1.289089954E-2
1.890073225E1,4.635124393E-3
1.891066725E1,-1.070533823E-3
1.892060225E1,9.751639087E-3
1.893053725E1,1.735753275E-2
1.894047225E1,-1.872022636E-3
1.895040725E1,6.797954645E-3
1.896034225E1,3.330848124E-3
1.897027625E1,9.325431883E-3
1.898021125E1,6.401842330E-3
1.899014625E1,-1.398902491E-2
1.900008125E1,9.722238556E-3
1.901001625E1,1.039457699E-2
1.901995125E1,7.268746868E-3
1.902988625E1,5.475040376E-3
1.903982125E1,-1.037336256E-2
1.904975625E1,-4.368582722E-3
1.905969125E1,-3.107502759E-3
1.906962625E1,1.259872148E-2
1.907956125E1,8.257839940E-3
1.908949625E1,1.334603218E-2
1.909943125E1,1.460303737E-2
1.910936625E1,-1.891866624E-3
1.911930025E1,-3.729500324E-3
1.912923525E1,1.042496424E-2
1.913917025E1,1.464988818E-2
1.914910525E1,4.598944746E-3
1.915904025E1,4.092466235E-3
1.916897525E1,-1.870560832E-4
1.917891025E1,1.167159062E-3
1.918884525E1,-1.975408718E-3
1.919878025E1,6.543893125E-3
1.920871525E1,-1.360880971E-2
1.921865025E1,-3.812877964E-3
1.922858525E1,9.122405592E-3
1.923852025E1,-1.697684247E-3
1.924845525E1,1.526759170E-2
1.925839025E1,4.251875952E-3
1.926832525E1,2.267769501E-3
1.927825925E1,-1.032296687E-2
1.928819425E1,5.938432217E-3
1.929812925E1,1.585613223E-2
1.930806425E1,-2.614344936E-3
1.931799925E1,4.319922924E-3
1.932793425E1,5.086840075E-3
1.933786925E1,-8.587330543E-3
1.934780425E1,2.606990235E-2
1.935773925E1,2.089224771E-2
1.936767425E1,6.278995983E-3
1.937760925E1,9.226394668E-3
1.938754425E1,1.340103256E-2
1.939747925E1,1.100939345E-2
1.940741425E1,1.777297743E-3
1.941734925E1,1.681333970E-2
1.942728325E1,8.718600534E-3
1.943721825E1,-1.855266709E-3
1.944715325E1,-8.846581466E-3
1.945708825E1,-1.170385994E-2
1.946702325E1,4.543834738E-4
1.947695825E1,-5.134933423E-3
1.948689325E1,2.201186160E-2
1.949682825E1,2.089789392E-2
1.950676325E1,1.515433844E-3
1.951669825E1,8.957148660E-3
1.952663325E1,-4.461900629E-3
1.953656825E1,-1.834892817E-3
1.954650325E1,-3.942211065E-3
1.955643825E1,-3.482309282E-3
1.956637325E1,5.369370226E-3
1.957630725E1,1.186690589E-2
1.958624225E1,5.832725521E-3
1.959617725E1,-1.427303514E-2
1.960611225E1,1.876009706E-2
1.961604725E1,-6.060657296E-3
1.962598225E1,6.300265230E-3
1.963591725E1,-2.699019928E-3
1.964585225E1,-1.020187469E-2
1.965578725E1,4.392428398E-3
1.966572229E1,3.890116028E-3
1.967565729E1,6.961841136E-5
1.968559229E1,5.796984416E-3
1.969552729E1,-1.345822563E-2
1.970546229E1,1.986628063E-3
1.971539729E1,4.396886900E-3
1.972533229E1,-3.756580241E-3
1.973526629E1,-4.860881735E-3
1.974520129E1,1.363048095E-2
1.975513629E1,-2.738141455E-4
1.976507129E1,7.593175974E-3
1.977500629E1,8.480564039E-3
1.978494129E1,1.089813190E-2
1.979487629E1,-1.253807489E-3
1.980481129E1,1.768992869E-2
1.981474629E1,-4.089432992E-3
1.982468129E1,-8.526848406E-3
1.983461629E1,7.042075898E-3
1.984455129E1,1.038765170E-2
1.985448629E1,2.454323089E-2
1.986442129E1,2.893092670E-3
1.987435629E1,9.981050938E-3
1.988429029E1,1.606445756E-2
1.989422529E1,-2.840467729E-4
1.990416029E1,2.775454000E-3
1.991409529E1,-4.307168685E-3
1.992403029E1,1.384037772E-2
1.993396529E1,6.020402871E-3
1.994390029E1,-6.019836422E-3
1.995383529E1,2.465480307E-2
1.996377029E1,8.061556220E-3
1.997370529E1,-1.071970046E-2
1.998364029E1,-7.247806527E-4
1.999357529E1,-7.689106856E-3
2.000351029E1,7.020404655E-3
2.001344529E1,8.360842299E-3
2.002338029E1,-3.344424628E-3
2.003331429E1,1.750166662E-2
2.004324929E1,1.318331514E-2
2.005318429E1,3.371120822E-3
2.006311929E1,1.339280991E-2
2.007305429E1,-8.946788125E-4
2.008298929E1,-1.452064645E-3
2.009292429E1,-1.149431035E-2
2.010285929E1,-6.961311232E-3
2.011279429E1,5.622792207E-3
2.012272929E1,5.675289240E-3
2.013266429E1,8.703671861E-3
2.014259929E1,-1.695248516E-2
2.015253429E1,1.494089680E-2
2.016246929E1,6.444417369E-3
2.017240329E1,-6.104931682E-3
2.018233829E1,7.691281289E-4
2.019227329E1,9.588867221E-3
2.020220829E1,2.174433321E-5
2.021214329E1,1.438853592E-3
2.022207829E1,-4.449347388E-3
2.023201329E1,1.478194389E-3
2.024194829E1,4.996628501E-4
2.025188329E1,4.216536842E-3
2.026181829E1,-1.205584405E-2
2.027175329E1,-2.305319589E-3
2.028168829E1,1.547611803E-3
2.029162329E1,8.208577149E-4
2.030155829E1,1.433008203E-2
2.031149329E1,1.294421883E-2
2.032142729E1,-9.636174850E-3
2.033136229E1,2.152853440E-3
2.034129729E1,7.977922764E-3
2.035123229E1,1.060703192E-3
2.036116729E1,-4.823477827E-3
2.037110229E1,-3.235776052E-3
2.038103729E1,7.269386407E-3
2.039097229E1,1.152020255E-2
2.040090729E1,1.063981287E-2
2.041084229E1,3.661033083E-3
2.042077729E1,1.483127978E-3
2.043071229E1,1.546255980E-2
2.044064729E1,-2.215034924E-3
2.045058229E1,-4.990269653E-3
2.046051729E1,1.415409911E-3
2.047045129E1,-6.641377173E-3
2.048038629E1,-6.492072176E-3
2.049032129E1,2.573962603E-3
2.050025629E1,1.452375278E-3
2.051019129E1,1.728162859E-2
2.052012629E1,1.548490712E-2
2.053006129E1,4.692756012E-4
2.053999629E1,-6.373757422E-3
2.054993129E1,5.668491852E-3
2.055986629E1,7.036868222E-3
2.056980129E1,3.086489327E-3
2.057973629E1,1.637403108E-4
2.058967129E1,1.365746951E-2
2.059960629E1,5.738402624E-3
2.060954029E1,-1.265068861E-2
2.061947529E1,4.598652385E-3
2.062941029E1,1.068171183E-2
2.063934529E1,-3.129521180E-3
2.064928029E1,-5.480942409E-3
2.065921529E1,3.279228173E-3
2.066915067E1,1.473048840E-2
2.067908567E1,-1.240799261E-2
2.068902067E1,6.557250358E-3
2.069895567E1,1.155477421E-2
2.070889067E1,-6.227101944E-4
2.071882567E1,-1.063151713E-3
2.072876067E1,2.176315393E-3
2.073869567E1,-9.161709845E-3
2.074863067E1,-9.214005880E-3
2.075856467E1,-4.603202250E-3
2.076849967E1,-1.547045354E-3
2.077843467E1,1.441269223E-2
2.078836967E1,3.446082126E-2
2.079830467E1,2.336558338E-2
2.080823967E1,3.022151683E-3
2.081817467E1,4.357089289E-3
2.082810967E1,-3.300972506E-3
2.083804467E1,2.857662197E-3
2.084797967E1,7.916819360E-3
2.085791467E1,-4.599237107E-3
2.086784967E1,-8.412827700E-3
2.087778467E1,-4.111049417E-3
2.088771867E1,-3.798424378E-3
2.089765367E1,2.161658982E-2
2.090758867E1,2.607525621E-2
2.091752367E1,-8.390023559E-4
2.092745867E1,-6.111180894E-3
2.093739367E1,-7.453829516E-3
2.094732867E1,4.042161908E-3
2.095726367E1,-1.079269929E-2
2.096719867E1,-6.473434176E-3
2.097713367E1,9.654593579E-3
2.098706867E1,-9.295757264E-3
2.099700367E1,1.835784517E-2
2.100693867E1,-1.943614483E-3
2.101687367E1,5.043771677E-4
2.102680867E1,-1.267394956E-2
2.103674267E1,9.791930057E-3
2.104667767E1,-1.081404163E-2
2.105661267E1,1.435796594E-2
2.106654767E1,5.004924238E-3
2.107648267E1,5.365606081E-3
2.108641767E1,1.095841303E-3
2.109635267E1,2.753605513E-2
2.110628767E1,-3.976106644E-5
2.111622267E1,1.025512090E-2
2.112615767E1,-3.596677165E-3
2.113609267E1,1.448633060E-2
2.114602767E1,-8.011361528E-3
2.115596267E1,-7.703414261E-3
2.116589667E1,-9.214115515E-4
2.117583167E1,2.035837865E-2
2.118576667E1,7.964748256E-3
2.119570167E1,1.121598288E-2
2.120563667E1,4.830713756E-3
2.121557167E1,-8.882139847E-3
2.122550667E1,-3.054987453E-3
2.123544167E1,-8.434553761E-3
2.124537667E1,9.952344764E-3
2.125531167E1,-8.557308745E-3
2.126524667E1,4.009198230E-3
2.127518167E1,-4.572705366E-4
2.128511667E1,4.116732180E-3
2.129505167E1,6.910111550E-3
2.130498667E1,6.473744810E-3
2.131492067E1,6.923048515E-3
2.132485567E1,1.315915883E-3
2.133479067E1,4.820152223E-3
2.134472567E1,1.954525022E-2
2.135466067E1,9.468432851E-3
2.136459567E1,-3.136263750E-3
2.137453067E1,-5.882134493E-3
2.138446567E1,1.274923246E-2
2.139440067E1,7.204007227E-3
2.140433567E1,1.209951544E-2
2.141427067E1,7.247514166E-3
2.142420567E1,-3.545788117E-3
2.143414067E1,-1.031865455E-2
2.144407567E1,1.137334608E-2
2.145400967E1,-2.874600850E-3
2.146394467E1,-2.419577837E-3
2.147387967E1,-7.977886219E-3
2.148381467E1,3.709692881E-4
2.149374967E1,1.188611034E-2
2.150368467E1,5.293484330E-3
2.151361967E1,-2.370680496E-3
2.152355467E1,1.209511176E-2
2.153348967E1,1.921765996E-2
2.154342467E1,5.341066048E-5
2.155335967E1,-3.304243293E-3
2.156329467E1,2.038120106E-4
2.157322967E1,1.020605911E-2
2.158316367E1,2.136192530E-2
2.159309867E1,-5.792599004E-3
2.160303367E1,-3.413202502E-3
2.161296867E1,1.293429684E-2
2.162290367E1,4.685355630E-3
2.163283867E1,6.540275160E-3
2.164277367E1,1.321200304E-2
2.165270867E1,-7.200480625E-3
2.166264387E1,8.666377589E-3
2.167257888E1,5.918844044E-3
2.168251387E1,1.044515541E-2
2.169244887E1,-7.736834753E-3
2.170238388E1,1.425370278E-2
2.171231887E1,1.808251441E-4
2.172225287E1,7.574135978E-3
2.173218787E1,1.319875544E-2
2.174212288E1,-4.963007011E-3
2.175205787E1,-2.454350498E-3
2.176199288E1,3.596859891E-3
2.177192788E1,-8.791928273E-3
2.178186287E1,7.543328460E-3
2.179179788E1,2.853240240E-3
2.180173287E1,4.509902615E-3
2.181166787E1,5.637008250E-3
2.182160288E1,4.261670038E-3
2.183153787E1,7.809614316E-3
2.184147288E1,8.092546463E-3
2.185140687E1,-1.215899259E-2
2.186134188E1,-1.249842346E-5
2.187127687E1,6.089473106E-3
2.188121188E1,2.117788419E-4
2.189114688E1,5.263133626E-3
2.190108187E1,5.166983474E-3
2.191101688E1,1.728500901E-2
2.192095187E1,7.512319945E-3
2.193088687E1,9.107641373E-3
2.194082188E1,-4.498884268E-4
2.195075687E1,-2.872627415E-4
2.196069188E1,-1.521865781E-3
2.197062688E1,-1.783053596E-3
2.198056088E1,3.694252577E-3
2.199049587E1,-4.623375144E-3
2.200043088E1,-1.010517636E-2
2.201036588E1,-9.246092476E-4
2.202030087E1,-3.439076431E-3
2.203023588E1,1.524886234E-2
2.204017087E1,6.906950399E-3
2.205010587E1,2.553881072E-3
2.206004088E1,6.693417393E-3
2.206997587E1,5.791100655E-3
2.207991088E1,1.871127281E-3
2.208984588E1,2.032638341E-4
2.209978087E1,-2.430340368E-3
2.210971588E1,7.387390528E-3
2.211964988E1,1.522212960E-3
2.212958488E1,-1.127215270E-2
2.213951987E1,4.791427776E-3
2.214945488E1,-6.917749476E-3
2.215938987E1,-2.725533396E-4
2.216932487E1,-1.402290221E-3
2.217925988E1,9.153816104E-4
2.218919487E1,1.207199698E-2
2.219912988E1,6.743557267E-3
2.220906488E1,5.624546371E-3
2.221899987E1,1.963984720E-2
2.222893488E1,1.784157258E-2
2.223886988E1,4.908554815E-4
2.224880388E1,-2.425150964E-3
2.225873887E1,2.349813245E-3
2.226867388E1,4.719909020E-3
2.227860887E1,1.793726591E-2
2.228854387E1,-1.154569276E-3
2.229847888E1,6.977975797E-3
2.230841387E1,1.905698944E-3
2.231834888E1,-7.225879468E-4
2.232828388E1,6.634159517E-3
2.233821887E1,1.288379151E-2
2.234815388E1,9.348656293E-3
2.235808888E1,-3.229709566E-3
2.236802387E1,1.262623994E-2
2.237795787E1,1.016754057E-2
2.238789288E1,7.532364931E-3
2.239782788E1,5.218493789E-3
2.240776287E1,4.007944733E-2
2.241769788E1,8.782170732E-3
2.242763287E1,6.779481098E-3
2.243756788E1,5.966498852E-3
2.244750288E1,-1.039494244E-2
2.245743787E1,3.271791246E-3
2.246737288E1,9.651889242E-3
2.247730788E1,7.476249933E-3
2.248724287E1,9.932793137E-3
2.249717788E1,3.563457672E-3
2.250711188E1,8.537081033E-3
2.251704688E1,1.034834744E-2
2.252698187E1,9.219414555E-3
2.253691688E1,4.884380233E-3
2.254685187E1,-3.721624855E-3
2.255678688E1,9.066107869E-3
2.256672188E1,6.964362748E-3
2.257665687E1,5.539012570E-3
2.258659188E1,7.777235359E-3
2.259652688E1,1.510830989E-2
2.260646187E1,6.162015125E-3
2.261639688E1,-2.650798671E-3
2.262633187E1,-9.776964840E-3
2.263626588E1,-3.535043858E-3
2.264620087E1,-1.804615203E-3
2.265613588E1,2.728473449E-2
2.266607017E1,4.209830817E-3
2.267600517E1,4.657435175E-3
2.268594017E1,3.088353127E-3
2.269587517E1,-9.109596536E-4
2.270581017E1,5.085159000E-3
2.271574517E1,1.013850549E-2
2.272568017E1,5.176284201E-3
2.273561517E1,1.097593641E-2
2.274555017E1,-6.451671571E-3
2.275548417E1,-4.803140480E-3
2.276541917E1,6.421156414E-3
2.277535417E1,2.499684691E-3
2.278528917E1,-3.776588682E-3
2.279522417E1,-1.301389206E-3
2.280515917E1,2.545895968E-2
2.281509417E1,1.030286707E-2
2.282502917E1,-6.765484326E-3
2.283496417E1,1.395483697E-2
2.284489917E1,7.078913357E-3
2.285483417E1,-6.953326128E-3
2.286476917E1,1.443854788E-2
2.287470417E1,1.749276789E-2
2.288463817E1,-8.538762107E-5
2.289457317E1,1.614977209E-2
2.290450817E1,-4.514251482E-3
2.291444317E1,1.216891458E-2
2.292437817E1,5.771750025E-3
2.293431317E1,-1.935062930E-4
2.294424817E1,1.345279869E-2
2.295418317E1,1.737584185E-2
2.296411817E1,-3.518964015E-3
2.297405317E1,-2.485066652E-5
2.298398817E1,1.610683160E-2
2.299392317E1,-8.192716576E-3
2.300385817E1,1.193093291E-2
2.301379217E1,-1.414825190E-3
2.302372717E1,-1.700479947E-3
2.303366217E1,9.815830551E-3
2.304359717E1,-1.019078325E-2
2.305353217E1,7.560084388E-4
2.306346717E1,6.984206736E-3
2.307340217E1,-3.042945843E-3
2.308333717E1,2.156160772E-4
2.309327217E1,1.661102604E-2
2.310320717E1,-2.829157021E-3
2.311314217E1,-1.647180749E-2
2.312307717E1,6.929133274E-3
2.313301117E1,7.397933789E-3
2.314294617E1,9.567506611E-4
2.315288117E1,1.917645536E-2
2.316281617E1,6.830607690E-3
2.317275117E1,4.201206174E-3
2.318268617E1,-2.834456060E-3
2.319262117E1,8.400036916E-3
2.320255617E1,1.491770893E-4
2.321249117E1,1.514443472E-2
2.322242617E1,2.173600093E-2
2.323236117E1,2.781628294E-2
2.324229617E1,-1.763264425E-3
2.325223117E1,-8.649329301E-3
2.326216517E1,3.413714133E-3
2.327210017E1,2.412013002E-3
2.328203517E1,1.821475284E-2
2.329197017E1,1.140514031E-2
2.330190517E1,5.546997674E-4
2.331184017E1,8.874081653E-3
2.332177517E1,1.096060574E-3
2.333171017E1,-4.068894647E-3
2.334164517E1,-7.284936346E-3
2.335158017E1,1.252254322E-2
2.336151517E1,1.298513107E-2
2.337145017E1,8.689912632E-3
2.338138417E1,9.002519399E-3
2.339131917E1,1.202796014E-2
2.340125417E1,-9.532569498E-3
2.341118917E1,8.428395912E-3
2.342112417E1,7.272657193E-3
2.343105917E1,6.222917531E-3
2.344099417E1,4.881237354E-3
2.345092917E1,2.302560434E-3
2.346086417E1,-7.459932547E-3
2.347079917E1,1.127427232E-2
2.348073417E1,3.673805594E-3
2.349066917E1,2.549130209E-3
2.350060317E1,5.989741534E-4
2.351053817E1,5.181528423E-3
2.352047317E1,1.482022488E-2
2.353040817E1,1.692622751E-2
2.354034317E1,1.030105809E-2
2.355027817E1,6.849300507E-3
2.356021317E1,6.203329358E-3
2.357014817E1,5.295567401E-4
2.358008317E1,1.289532149E-2
2.359001817E1,1.366468716E-2
2.359995317E1,1.234504368E-2
2.360988817E1,7.833807170E-3
2.361982217E1,8.462200128E-3
2.362975717E1,1.175283037E-2
2.363969217E1,-4.483498782E-3
2.364962717E1,8.131613173E-3
2.365956217E1,1.024945641E-2
2.366949754E1,-6.761738453E-3
2.367943254E1,1.604402885E-3
2.368936754E1,6.507512480E-3
2.369930254E1,6.045089085E-3
2.370923754E1,-7.797554433E-3
2.371917254E1,8.982492685E-3
2.372910754E1,8.749864865E-3
2.373904154E1,9.649111815E-3
2.374897654E1,-3.511015456E-3
2.375891154E1,2.060240854E-2
2.376884654E1,6.991479211E-3
2.377878154E1,-1.337897759E-3
2.378871654E1,8.308071177E-3
2.379865154E1,1.841841867E-2
2.380858654E1,-4.749346096E-3
2.381852154E1,1.155440876E-2
2.382845654E1,-4.748450741E-3
2.383839154E1,-1.860949472E-3
2.384832654E1,1.518631540E-4
2.385826054E1,9.214097243E-3
2.386819554E1,1.966740221E-2
2.387813054E1,1.810078695E-2
2.388806554E1,1.476772785E-2
2.389800054E1,7.444400880E-3
2.390793554E1,-2.665416710E-4
2.391787054E1,-1.167963054E-3
2.392780554E1,-9.926927648E-3
2.393774054E1,1.608209057E-2
2.394767554E1,7.991681993E-4
2.395761054E1,1.687718399E-2
2.396754554E1,3.052301388E-3
2.397748054E1,6.497992482E-3
2.398741454E1,1.813378718E-2
2.399734954E1,1.155700346E-2
2.400728454E1,1.681622677E-3
2.401721954E1,-7.184126694E-3
2.402715454E1,9.647978917E-3
2.403708954E1,5.810232013E-3
2.404702454E1,8.124450333E-3
2.405695954E1,8.064077832E-3
2.406689454E1,1.281956350E-2
2.407682954E1,5.605634283E-3
2.408676454E1,1.527479108E-2
2.409669954E1,2.094728462E-2
2.410663354E1,1.857373534E-2
2.411656854E1,1.431703543E-2
2.412650354E1,2.101809075E-2
2.413643854E1,1.409043755E-2
2.414637354E1,4.802281670E-3
2.415630854E1,2.163473446E-2
2.416624354E1,3.152471501E-3
2.417617854E1,-9.187693410E-3
2.418611354E1,-4.974884167E-4
2.419604854E1,-5.732920859E-3
2.420598354E1,1.437369861E-2
2.421591854E1,-6.682874132E-3
2.422585254E1,-3.405016400E-3
2.423578754E1,2.527970597E-3
2.424572254E1,-8.632591646E-3
2.425565754E1,-1.026782032E-2
2.426559254E1,1.969853863E-3
2.427552754E1,8.807459939E-3
2.428546254E1,1.282367483E-3
2.429539754E1,4.912885409E-3
2.430533254E1,1.996064007E-2
2.431526754E1,1.112577131E-2
2.432520254E1,1.184079442E-3
2.433513754E1,1.323133539E-3
2.434507154E1,6.198414043E-4
2.435500654E1,-1.290606575E-2
2.436494154E1,-3.051698394E-3
2.437487654E1,-1.099102953E-2
2.438481154E1,-2.320028991E-3
2.439474654E1,7.378546614E-3
2.440468154E1,1.101008780E-2
2.441461654E1,-7.670231313E-3
2.442455154E1,2.200325523E-3
2.443448654E1,8.767808508E-3
2.444442154E1,9.536790457E-3
2.445435654E1,2.094123641E-2
2.446429054E1,1.468528211E-2
2.447422554E1,4.020582028E-3
2.448416054E1,-2.536503877E-3
2.449409554E1,1.015473152E-2
2.450403054E1,6.494283155E-3
2.451396554E1,1.781719700E-2
2.452390054E1,1.065415682E-2
2.453383554E1,3.665656038E-3
2.454377054E1,8.648013677E-3
2.455370554E1,1.118806243E-2
2.456364054E1,-1.653762521E-2
2.457357554E1,1.212511528E-3
2.458350954E1,1.503671804E-2
2.459344454E1,-2.322610902E-2
2.460337954E1,1.432297401E-2
2.461331454E1,9.784109406E-3
2.462324954E1,1.204053165E-2
2.463318454E1,1.674733926E-3
2.464311954E1,2.547390662E-2
2.465305454E1,7.842614539E-3
2.466298954E1,3.805806488E-3
2.467292463E1,1.653482951E-2
2.468285962E1,7.169526927E-3
2.469279463E1,-1.163851731E-3
2.470272862E1,-5.515440982E-3
2.471266363E1,1.439516885E-2
2.472259862E1,2.698268926E-2
2.473253363E1,-1.910924893E-3
2.474246863E1,-4.583595805E-3
2.475240362E1,-5.579522811E-3
2.476233863E1,-4.339182191E-4
2.477227362E1,-6.053878181E-3
2.478220862E1,6.895785872E-3
2.479214363E1,-1.022842471E-3
2.480207862E1,8.679552097E-3
2.481201363E1,1.883527033E-2
2.482194762E1,-6.408365630E-3
2.483188263E1,4.458648115E-3
2.484181762E1,1.897043237E-2
2.485175263E1,5.532964356E-3
2.486168763E1,7.495728470E-3
2.487162262E1,-1.919293720E-3
2.488155763E1,-2.857150566E-3
2.489149262E1,9.324097987E-3
2.490142762E1,1.627048055E-2
2.491136263E1,9.440512396E-4
2.492129762E1,-6.924784407E-3
2.493123263E1,5.825617500E-3
2.494116662E1,-3.381865080E-3
2.495110163E1,7.023529261E-3
2.496103662E1,-2.301719896E-3
2.497097163E1,1.478179771E-2
2.498090663E1,1.018206725E-2
2.499084162E1,2.225267552E-3
2.500077663E1,1.094850931E-2
2.501071163E1,-2.691199277E-3
2.502064662E1,9.249454625E-3
2.503058163E1,2.090878436E-2
2.504051662E1,1.079048831E-3
2.505045163E1,3.604552634E-3
2.506038663E1,1.254658990E-2
2.507032063E1,2.832391262E-3
2.508025562E1,3.259311095E-3
2.509019063E1,-1.880245283E-5
2.510012563E1,-1.202297173E-3
2.511006062E1,9.393862579E-3
2.511999563E1,7.477090470E-3
2.512993063E1,1.291827181E-2
2.513986562E1,6.995864622E-3
2.514980063E1,1.695546359E-3
2.515973562E1,-1.081332900E-3
2.516967063E1,1.245968565E-2
2.517960563E1,1.783488482E-2
2.518953963E1,4.334084149E-3
2.519947462E1,4.426671155E-3
2.520940963E1,1.488317382E-2
2.521934463E1,9.388928991E-3
2.522927962E1,1.439915227E-2
2.523921463E1,4.426506702E-3
2.524914963E1,-5.971651711E-4
2.525908462E1,-2.612462863E-3
2.526901963E1,8.802069537E-4
2.527895462E1,1.016406879E-2
2.528888962E1,-5.608704071E-3
2.529882463E1,1.354591560E-2
2.530875863E1,1.390329011E-2
2.531869362E1,1.247311598E-2
2.532862863E1,2.123270184E-3
2.533856363E1,1.426473940E-2
2.534849862E1,3.627923224E-3
2.535843363E1,1.205891384E-2
2.536836863E1,1.511086805E-2
2.537830362E1,1.255042713E-2
2.538823863E1,-1.216483980E-2
2.539817362E1,-1.976450253E-3
2.540810862E1,8.592593037E-3
2.541804363E1,-7.777820081E-3
2.542797763E1,2.382100839E-3
2.543791262E1,-3.494423982E-3
2.544784762E1,6.458121780E-3
2.545778263E1,3.531767590E-2
2.546771762E1,8.902751282E-3
2.547765263E1,-1.900345087E-4
2.548758763E1,-7.034437973E-3
2.549752262E1,6.965495646E-3
2.550745763E1,6.417849082E-3
2.551739262E1,7.097843718E-3
2.552732762E1,2.704428602E-3
2.553726263E1,8.465324733E-3
2.554719663E1,1.232940238E-2
2.555713162E1,2.125663888E-3
2.556706662E1,1.677092912E-2
2.557700163E1,-1.071776357E-3
2.558693662E1,-6.083095986E-3
2.559687163E1,3.328874689E-3
2.560680663E1,-8.042918220E-3
2.561674162E1,-1.116001407E-2
2.562667663E1,7.193135060E-3
2.563661162E1,2.065746373E-2
2.564654662E1,-5.456731282E-4
2.565648163E1,2.154395644E-2
2.566641538E1,9.736856595E-3
2.567635037E1,1.166775338E-2
2.568628538E1,1.274482878E-2
2.569622038E1,9.747345038E-3
2.570615537E1,1.350926086E-3
2.571609038E1,1.650663497E-2
2.572602537E1,6.452402472E-3
2.573596037E1,1.896752704E-2
2.574589538E1,7.757555824E-3
2.575583037E1,3.372381628E-4
2.576576538E1,5.825471319E-4
2.577570038E1,-4.757806286E-3
2.578563438E1,7.248866335E-3
2.579556937E1,6.132486686E-3
2.580550438E1,-9.388325997E-3
2.581543938E1,7.699302938E-3
2.582537437E1,8.646807689E-3
2.583530938E1,6.342547908E-3
2.584524437E1,4.346728753E-3
2.585517937E1,-5.765117090E-3
2.586511438E1,1.961410118E-2
2.587504937E1,1.052074894E-2
2.588498438E1,8.562041335E-3
2.589491938E1,1.618856471E-3
2.590485338E1,-1.911674067E-3
2.591478837E1,5.148473382E-3
2.592472338E1,1.823920151E-2
2.593465838E1,4.710754473E-3
2.594459337E1,1.849364676E-3
2.595452838E1,7.753755134E-3
2.596446337E1,-9.187693410E-3
2.597439837E1,-5.652466826E-3
2.598433338E1,-1.338442281E-2
2.599426837E1,5.558326654E-3
2.600420338E1,4.101565965E-3
2.601413838E1,-1.879903587E-2
2.602407238E1,-5.111855194E-3
2.603400737E1,1.445777060E-2
2.604394238E1,9.422440846E-3
2.605387738E1,-6.931508705E-3
2.606381237E1,1.091567354E-2
2.607374738E1,-5.733688306E-3
2.608368237E1,4.073846508E-3
2.609361737E1,-3.857828435E-3
2.610355238E1,2.742477531E-2
2.611348737E1,2.965680370E-2
2.612342238E1,1.917064469E-3
2.613335637E1,-1.844047364E-3
2.614329138E1,-1.227348838E-2
2.615322637E1,-4.044939335E-3
2.616316138E1,3.240771767E-2
2.617309638E1,-1.219455097E-3
2.618303137E1,1.231880430E-2
2.619296638E1,7.275964525E-3
2.620290137E1,3.438254166E-3
2.621283637E1,1.708808575E-2
2.622277138E1,1.424971936E-2
2.623270637E1,6.431699675E-3
2.624264138E1,8.584754113E-3
2.625257537E1,7.575963233E-3
2.626251038E1,9.651432429E-3
2.627244537E1,9.324700981E-3
2.628238038E1,-2.574730050E-3
2.629231538E1,2.824351341E-3
2.630225037E1,-6.079825200E-3
2.631218538E1,-4.809901323E-3
2.632212037E1,2.507980429E-3
2.633205537E1,4.640642703E-3
2.634199038E1,-2.422830351E-3
2.635192537E1,-8.831543159E-3
2.636186038E1,2.085815113E-2
2.637179437E1,3.892783821E-3
2.638172938E1,3.904788885E-3
2.639166437E1,-6.072370000E-3
2.640159938E1,1.010651026E-2
2.641153438E1,-7.811752204E-3
2.642146937E1,-1.063992251E-3
2.643140438E1,-9.366417211E-3
2.644133938E1,1.157529429E-3
2.645127437E1,6.828268804E-4
2.646120938E1,8.450304698E-3
2.647114437E1,2.908405066E-3
2.648107938E1,1.585129000E-2
2.649101337E1,1.301396515E-2
2.650094838E1,2.337972634E-3
2.651088337E1,1.272253627E-2
2.652081838E1,1.029639859E-3
2.653075338E1,1.087163670E-2
2.654068837E1,8.598531615E-3
2.655062338E1,6.434148196E-3
2.656055838E1,-4.445309155E-3
2.657049337E1,1.527365819E-3
2.658042838E1,4.431294110E-3
2.659036337E1,1.320513256E-2
2.660029838E1,1.745704506E-3
2.661023237E1,5.890905317E-3
2.662016738E1,-1.060275614E-2
2.663010237E1,1.627994573E-2
2.664003738E1,1.788036520E-2
2.664997238E1,1.553153867E-2
2.665990737E1,-3.218800854E-3
2.666984267E1,8.448934257E-3
2.667977767E1,1.092351247E-2
2.668971267E1,1.920549044E-2
2.669964767E1,-2.074811384E-3
2.670958267E1,9.995084256E-3
2.671951767E1,-5.272872895E-3
2.672945167E1,-4.477450568E-3
2.673938667E1,1.068127329E-2
2.674932167E1,-1.002722567E-2
2.675925667E1,5.710007083E-3
2.676919167E1,3.551233336E-3
2.677912667E1,1.444059441E-2
2.678906167E1,9.478391390E-3
2.679899667E1,8.964220136E-3
2.680893167E1,-9.893287886E-3
2.681886667E1,-1.550299695E-2
2.682880167E1,1.709470041E-3
2.683873567E1,6.976678446E-3
2.684867067E1,6.213032082E-4
2.685860567E1,-8.110800739E-3
2.686854067E1,1.087618656E-3
2.687847567E1,5.482605211E-3
2.688841067E1,8.581355419E-3
2.689834567E1,-5.266806409E-3
2.690828067E1,-1.347699154E-2
2.691821567E1,5.761480853E-3
2.692815067E1,2.074107891E-2
2.693808567E1,4.204257689E-3
2.694802067E1,-2.641516216E-3
2.695795467E1,3.740683123E-3
2.696788967E1,1.637737496E-2
2.697782467E1,1.176498162E-2
2.698775967E1,1.619042851E-2
2.699769467E1,6.957528815E-3
2.700762967E1,-1.293848125E-2
2.701756467E1,-2.628031075E-3
2.702749967E1,5.584693942E-3
2.703743467E1,9.504283592E-3
2.704736967E1,1.299413944E-2
2.705730467E1,-8.427665010E-3
2.706723967E1,1.525469128E-2
2.707717367E1,1.813110111E-2
2.708710867E1,1.496375576E-3
2.709704367E1,2.303693332E-3
2.710697867E1,1.388234977E-2
2.711691367E1,1.487531662E-2
2.712684867E1,6.055705436E-4
2.713678367E1,2.000844106E-4
2.714671867E1,1.168653756E-2
2.715665367E1,-3.816696927E-3
2.716658867E1,3.388863467E-3
2.717652367E1,-6.827263813E-3
2.718645867E1,1.230075102E-2
2.719639267E1,6.254876219E-3
2.720632767E1,1.957209259E-3
2.721626267E1,7.666595075E-3
2.722619767E1,9.460703563E-3
2.723613267E1,6.340428293E-3
2.724606767E1,-1.615640502E-3
2.725600267E1,-3.370828461E-3
2.726593767E1,3.853534386E-3
2.727587267E1,5.246012248E-3
2.728580767E1,7.158928849E-3
2.729574267E1,-5.267921034E-3
2.730567667E1,8.428962361E-3
2.731561167E1,-7.953857817E-4
2.732554667E1,-4.077775106E-3
2.733548167E1,6.059634034E-3
2.734541667E1,-2.581637073E-3
2.735535167E1,-3.749654945E-3
2.736528667E1,4.714719616E-3
2.737522167E1,1.632623009E-2
2.738515667E1,5.210764501E-3
2.739509167E1,1.922272146E-4
2.740502667E1,8.379882295E-3
2.741496167E1,1.966444205E-2
2.742489567E1,5.428043380E-3
2.743483067E1,1.115212033E-2
2.744476567E1,-9.224804956E-3
2.745470067E1,-7.465286404E-3
2.746463567E1,1.449871939E-3
2.747457067E1,2.592911236E-3
2.748450567E1,9.198675212E-3
2.749444067E1,1.032819282E-3
2.750437567E1,9.524127580E-3
2.751431067E1,1.948474981E-3
2.752424567E1,1.299653314E-3
2.753418067E1,1.167721856E-2
2.754411467E1,1.914944854E-3
2.755404967E1,8.845923655E-3
2.756398467E1,-3.369311839E-3
2.757391967E1,-1.421019584E-3
2.758385467E1,4.171166103E-3
2.759378967E1,-1.380447216E-2
2.760372467E1,7.742279973E-3
2.761365967E1,1.312054893E-2
2.762359467E1,-8.119297475E-3
2.763352967E1,1.065081295E-2
2.764346467E1,1.190699587E-2
2.765339967E1,6.799909808E-3
2.766333367E1,1.147446636E-2
2.767326787E1,8.918940760E-3
2.768320288E1,1.843458988E-2
2.769313788E1,-9.463170357E-3
2.770307287E1,1.003130045E-2
2.771300788E1,5.694347508E-3
2.772294287E1,2.997502014E-3
2.773287787E1,-2.690048106E-3
2.774281288E1,2.326740498E-2
2.775274787E1,3.561813142E-3
2.776268288E1,4.501972329E-3
2.777261788E1,6.974997371E-3
2.778255188E1,-1.471835542E-3
2.779248687E1,-1.070363889E-2
2.780242188E1,9.779413361E-3
2.781235688E1,9.228806645E-3
2.782229187E1,4.964706358E-3
2.783222688E1,-1.096665395E-2
2.784216187E1,1.121876031E-2
2.785209687E1,7.336227391E-3
2.786203188E1,-1.017863201E-2
2.787196687E1,-3.240910638E-3
2.788190188E1,6.270736791E-3
2.789183587E1,-9.523378406E-3
2.790177088E1,-1.115526320E-2
2.791170587E1,1.788517088E-3
2.792164088E1,2.044515498E-4
2.793157588E1,5.125322063E-3
2.794151087E1,-4.797019176E-3
2.795144588E1,-6.946090199E-3
2.796138088E1,6.153536662E-3
2.797131587E1,5.515331347E-3
2.798125088E1,8.989655524E-3
2.799118587E1,3.072602190E-3
2.800112088E1,4.473668151E-4
2.801105588E1,6.538319997E-3
2.802098988E1,-8.235218525E-3
2.803092487E1,2.437941749E-3
2.804085988E1,2.291048728E-3
2.805079488E1,1.916424930E-3
2.806072987E1,9.445902798E-3
2.807066488E1,1.020216705E-2
2.808059988E1,1.237270832E-3
2.809053487E1,-5.782750100E-3
2.810046988E1,-6.163696200E-3
2.811040487E1,1.165163700E-2
2.812033988E1,6.692558583E-3
2.813027387E1,2.805402707E-3
2.814020888E1,-4.148033056E-3
2.815014387E1,2.076748274E-3
2.816007888E1,-4.313966073E-4
2.817001388E1,4.674702734E-3
2.817994887E1,7.221512329E-3
2.818988388E1,7.845282331E-3
2.819981888E1,7.912123315E-3
2.820975387E1,1.348879561E-4
2.821968888E1,8.975147121E-3
2.822962387E1,9.042298738E-3
2.823955888E1,4.279010687E-3
2.824949287E1,-8.754396457E-3
2.825942788E1,1.258101538E-2
2.826936287E1,6.804879941E-3
2.827929788E1,1.330427941E-2
2.828923288E1,-1.177775413E-3
2.829916787E1,1.052634034E-2
2.830910288E1,1.869422453E-2
2.831903788E1,6.372916885E-4
2.832897287E1,5.596589372E-3
2.833890788E1,1.214252902E-2
2.834884287E1,-7.859589737E-3
2.835877787E1,-4.678338971E-3
2.836871187E1,1.012425290E-2
2.837864688E1,4.888838734E-3
2.838858187E1,1.605607046E-2
2.839851688E1,1.891665626E-3
2.840845188E1,7.689947393E-3
2.841838687E1,-1.930915061E-3
2.842832188E1,1.265998933E-2
2.843825688E1,-1.405414827E-3
2.844819187E1,-4.023761451E-3
2.845812688E1,-9.601457007E-3
2.846806187E1,-5.365130994E-3
2.847799687E1,1.546880901E-2
2.848793087E1,-3.586572446E-3
2.849786588E1,5.111106019E-3
2.850780087E1,2.243317176E-2
2.851773587E1,1.826158538E-2
2.852767088E1,9.701115489E-3
2.853760587E1,-4.462156445E-5
2.854754088E1,1.572499014E-2
2.855747588E1,7.920035329E-3
2.856741087E1,5.252078734E-3
2.857734588E1,6.852973290E-3
2.858728087E1,6.448455602E-3
2.859721488E1,-4.154958352E-3
2.860714987E1,-1.713891998E-3
2.861708488E1,8.538762107E-4
2.862701987E1,7.700106930E-3
2.863695487E1,7.691646740E-3
2.864688988E1,2.577891201E-3
2.865682487E1,1.118802588E-2
2.866675988E1,4.007462338E-3
2.867669563E1,1.231376108E-2
2.868663063E1,2.167952048E-2
2.869656562E1,1.291470867E-2
2.870650063E1,9.066162687E-3
2.871643463E1,1.563518057E-2
2.872636963E1,3.250686452E-4
2.873630462E1,-4.253557026E-3
2.874623963E1,-3.425426837E-3
2.875617462E1,9.066254050E-3
2.876610962E1,-2.418792117E-3
2.877604463E1,-2.390762027E-3
2.878597962E1,-1.847793236E-3
2.879591463E1,1.181316633E-2
2.880584963E1,4.286849611E-3
2.881578462E1,1.195024699E-4
2.882571862E1,5.950948913E-3
2.883565363E1,1.706259554E-2
2.884558863E1,-1.885909773E-4
2.885552362E1,-5.256756507E-3
2.886545863E1,7.413136549E-3
2.887539362E1,3.127785288E-3
2.888532862E1,2.064523939E-3
2.889526363E1,8.765981253E-3
2.890519862E1,1.327263135E-2
2.891513363E1,3.635177426E-3
2.892506863E1,-2.167910021E-3
2.893500362E1,-2.633585930E-3
2.894493762E1,1.788334362E-3
2.895487263E1,1.614346806E-2
2.896480763E1,5.600170791E-3
2.897474262E1,-5.074688829E-3
2.898467763E1,-2.528884225E-3
2.899461262E1,1.812779378E-2
2.900454762E1,6.740048937E-3
2.901448263E1,2.133667264E-3
2.902441762E1,4.574550893E-3
2.903435263E1,-6.997034065E-3
2.904428763E1,2.115021955E-2
2.905422262E1,9.537503086E-3
2.906415662E1,1.101494830E-2
2.907409163E1,1.287958883E-3
2.908402663E1,-8.492898010E-4
2.909396162E1,5.624729097E-3
2.910389663E1,8.258918021E-3
2.911383162E1,4.741653353E-3
2.912376662E1,-1.522815954E-3
2.913370163E1,2.259614462E-2
2.914363662E1,3.367630765E-3
2.915357163E1,6.649471913E-3
2.916350663E1,-9.914685041E-4
2.917344063E1,6.679731254E-3
2.918337562E1,8.708112091E-3
2.919331063E1,-3.271133434E-3
2.920324563E1,9.429950863E-3
2.921318062E1,1.281433756E-2
2.922311563E1,-9.800079614E-3
2.923305063E1,-1.032510476E-2
2.924298562E1,1.245329026E-3
2.925292063E1,2.448338829E-4
2.926285562E1,2.498423886E-3
2.927279063E1,1.923812522E-2
2.928272563E1,8.666779585E-3
2.929265963E1,-2.251543477E-4
2.930259462E1,-2.834638786E-3
2.931252963E1,5.413315706E-3
2.932246463E1,8.270393182E-3
2.933239962E1,3.904039711E-3
2.934233463E1,-1.657576002E-3
2.935226963E1,-3.844544291E-5
2.936220462E1,2.686612867E-3
2.937213963E1,8.290803619E-3
2.938207462E1,-4.296387881E-3
2.939200963E1,1.191213045E-2
2.940194362E1,9.963125568E-3
2.941187863E1,8.532001264E-3
2.942181362E1,-1.226362120E-3
2.943174863E1,1.266786480E-2
2.944168363E1,5.075310096E-3
2.945161862E1,6.583964825E-3
2.946155363E1,2.015345201E-2
2.947148863E1,2.063550012E-2
2.948142362E1,2.038540374E-3
2.949135863E1,-5.271630362E-5
2.950129362E1,1.926717857E-2
2.951122863E1,4.439863935E-4
2.952116262E1,-3.389740549E-4
2.953109763E1,1.162399063E-2
2.954103262E1,1.064668335E-3
2.955096763E1,9.017064348E-3
2.956090263E1,-2.023118343E-3
2.957083762E1,9.931002427E-3
2.958077263E1,1.484209713E-2
2.959070763E1,-1.945951542E-2
2.960064262E1,-1.179438215E-2
2.961057763E1,5.483591929E-4
2.962051262E1,1.691106129E-3
2.963044762E1,6.194266174E-3
2.964038162E1,2.664503083E-4
2.965031663E1,-2.185707483E-3
2.966025162E1,1.611046784E-2
2.967018613E1,9.556305539E-3
2.968012112E1,9.043102730E-3
2.969005613E1,1.022555592E-2
2.969999113E1,1.490009420E-2
2.970992612E1,-1.928704083E-3
2.971986113E1,1.018405896E-2
2.972979613E1,2.507121619E-3
2.973973112E1,-1.511139795E-5
2.974966512E1,7.044433057E-3
2.975960013E1,-7.565017976E-3
2.976953513E1,1.417931523E-3
2.977947012E1,-1.091532636E-2
2.978940513E1,9.984869901E-3
2.979934012E1,-1.483877152E-3
2.980927512E1,9.465564061E-3
2.981921013E1,2.383725269E-2
2.982914512E1,8.570026439E-3
2.983908013E1,-6.266698558E-3
2.984901513E1,-6.558967978E-3
2.985895012E1,-9.060918465E-3
2.986888412E1,2.871001158E-3
2.987881913E1,4.101182241E-3
2.988875413E1,3.720455412E-3
2.989868912E1,-8.058998063E-3
2.990862413E1,5.544603970E-3
2.991855912E1,6.909654737E-3
2.992849412E1,-8.325320464E-3
2.993842913E1,-2.749580070E-3
2.994836412E1,9.735029340E-3
2.995829913E1,1.687824380E-2
2.996823413E1,2.745066751E-3
2.997816813E1,2.532891395E-2
2.998810312E1,9.501177259E-3
2.999803813E1,2.513696082E-2
3.000797313E1,-7.795380000E-3
3.001790812E1,-5.859823711E-3
3.002784313E1,4.168333858E-4
3.003777812E1,1.673591891E-2
3.004771312E1,1.496797672E-2
3.005764813E1,1.973946914E-3
3.006758312E1,-1.487933658E-3
3.007751813E1,1.558016192E-2
3.008745313E1,1.314538132E-2
3.009738713E1,2.526821254E-2
3.010732212E1,1.168779837E-2
3.011725713E1,1.801841430E-2
3.012719213E1,1.200352974E-2
3.013712712E1,-4.755650125E-3
3.014706213E1,8.656455595E-3
3.015699712E1,1.518362934E-2
3.016693212E1,2.245572008E-2
3.017686713E1,6.973700020E-3
3.018680212E1,1.037754698E-2
3.019673713E1,1.225037361E-2
3.020667213E1,8.314229026E-3
3.021660613E1,1.755147759E-2
3.022654112E1,5.271813087E-3
3.023647613E1,1.112926137E-3
3.024641113E1,1.505400388E-2
3.025634612E1,1.352950685E-2
3.026628113E1,8.283037785E-3
3.027621612E1,7.903078403E-3
3.028615112E1,-8.638146501E-3
3.029608613E1,7.043921426E-3
3.030602112E1,6.765411235E-4
3.031595613E1,1.097107591E-2
3.032589012E1,1.223350804E-2
3.033582513E1,2.467159554E-4
3.034576012E1,9.758637473E-3
3.035569513E1,2.608004361E-3
3.036563013E1,6.359413471E-3
3.037556512E1,1.141411213E-2
3.038550013E1,7.826297153E-3
3.039543512E1,1.319690991E-2
3.040537012E1,1.830333816E-2
3.041530513E1,3.061539989E-2
3.042524012E1,9.854769353E-3
3.043517513E1,8.824087959E-3
3.044510912E1,6.408694535E-3
3.045504413E1,-1.281289402E-3
3.046497912E1,-4.874403421E-3
3.047491413E1,8.753373194E-3
3.048484913E1,2.419278167E-2
3.049478412E1,2.882786952E-3
3.050471913E1,-5.658094771E-3
3.051465412E1,-8.218828049E-3
3.052458912E1,6.015962642E-3
3.053452413E1,3.363647349E-3
3.054445912E1,1.560548767E-3
3.055439312E1,5.063378122E-3
3.056432812E1,2.468794947E-2
3.057426313E1,5.047426187E-3
3.058419812E1,-8.679186646E-3
3.059413313E1,-2.109383047E-4
3.060406813E1,3.850775231E-3
3.061400312E1,-2.744902298E-4
3.062393813E1,5.149112921E-3
3.063387312E1,5.926134791E-3
3.064380812E1,-3.216626421E-3
3.065374313E1,5.739937518E-3
3.066367713E1,-4.790404513E-3
3.067361288E1,-5.528779943E-3
3.068354787E1,3.819181994E-3
3.069348287E1,-5.839723907E-4
3.070341788E1,8.680246454E-3
3.071335287E1,1.999373166E-2
3.072328788E1,3.461350668E-3
3.073322288E1,8.160173167E-3
3.074315787E1,1.372038189E-2
3.075309288E1,1.043143272E-3
3.076302788E1,-6.361734085E-3
3.077296287E1,9.236718658E-3
3.078289687E1,2.119765509E-2
3.079283188E1,5.593720581E-3
3.080276688E1,-1.962840859E-2
3.081270187E1,5.300446171E-3
3.082263688E1,3.501184825E-3
3.083257187E1,2.228154615E-4
3.084250688E1,-6.617367044E-3
3.085244188E1,1.527775124E-2
3.086237687E1,4.888034742E-3
3.087231188E1,-2.315442581E-3
3.088224688E1,5.231449027E-3
3.089218088E1,-1.734156255E-3
3.090211587E1,1.318104934E-2
3.091205088E1,1.288318852E-2
3.092198588E1,-9.269645792E-3
3.093192087E1,6.312873289E-3
3.094185588E1,2.652388383E-3
3.095179087E1,-1.127103807E-2
3.096172588E1,-4.613873418E-3
3.097166088E1,-2.315442581E-3
3.098159587E1,1.550261322E-3
3.099153088E1,-5.037102196E-3
3.100146588E1,2.638987295E-2
3.101139988E1,1.107979758E-2
3.102133487E1,1.116845598E-2
3.103126988E1,1.607545763E-3
3.104120488E1,1.458445419E-2
3.105113987E1,5.674265977E-3
3.106107488E1,1.893748697E-3
3.107100987E1,1.561765719E-2
3.108094487E1,-1.154514458E-3
3.109087988E1,9.096257575E-4
3.110081487E1,4.866637588E-3
3.111074988E1,6.581717301E-3
3.112068388E1,1.384547576E-3
3.113061888E1,1.195158089E-2
3.114055387E1,7.503220215E-3
3.115048888E1,1.040256210E-4
3.116042388E1,4.706094973E-3
3.117035887E1,1.377255002E-2
3.118029388E1,1.903528165E-2
3.119022887E1,6.369225830E-3
3.120016387E1,9.324700981E-3
3.121009888E1,-3.728148155E-4
3.122003387E1,1.509685300E-2
3.122996888E1,2.038107315E-2
3.123990288E1,1.653671158E-2
3.124983788E1,2.162793707E-3
3.125977287E1,3.756214790E-3
3.126970788E1,1.064575145E-2
3.127964288E1,-8.199440874E-3
3.128957787E1,-1.358271651E-3
3.129951288E1,1.217803258E-2
3.130944787E1,3.523294609E-3
3.131938287E1,2.466830648E-3
3.132931788E1,1.552227449E-2
3.133925287E1,1.508024326E-2
3.134918687E1,6.067326777E-3
3.135912187E1,8.528566025E-3
3.136905688E1,-7.380428687E-3
3.137899187E1,9.729291759E-3
3.138892688E1,1.951796930E-2
3.139886188E1,-3.429337163E-3
3.140879687E1,1.059718302E-2
3.141873188E1,-1.350158639E-3
3.142866687E1,3.742948920E-3
3.143860187E1,1.993032591E-2
3.144853688E1,8.931000642E-3
3.145847088E1,1.313193273E-2
3.146840587E1,1.252332894E-2
3.147834087E1,6.771514267E-3
3.148827588E1,2.826032415E-3
3.149821087E1,1.735968892E-2
3.150814588E1,-3.784445878E-3
3.151808088E1,3.411302157E-4
3.152801587E1,1.287637286E-2
3.153795088E1,-3.660539724E-3
3.154788587E1,1.150130874E-2
3.155782087E1,8.047595993E-4
3.156775487E1,1.102788527E-2
3.157768988E1,-4.918367174E-3
3.158762487E1,1.201977404E-2
3.159755987E1,1.584909730E-2
3.160749488E1,6.362117808E-3
3.161742987E1,-2.220096420E-3
3.162736488E1,3.877544515E-3
3.163729988E1,1.592238849E-2
3.164723487E1,3.284435850E-3
3.165716988E1,6.599624399E-3
3.166710487E1,1.380798049E-2
3.167703862E1,-6.129581351E-3
3.168697362E1,1.005154643E-3
3.169690863E1,9.727464505E-3
3.170684362E1,3.555673566E-3
3.171677863E1,-1.202289864E-2
3.172671363E1,-4.151523113E-3
3.173664862E1,4.247380905E-3
3.174658363E1,5.637940150E-3
3.175651862E1,-1.548616793E-3
3.176645362E1,-2.160034552E-3
3.177638863E1,-3.737284429E-3
3.178632362E1,1.040018667E-2
3.179625762E1,3.018058632E-3
3.180619262E1,3.590007685E-3
3.181612763E1,1.068642614E-2
3.182606262E1,1.287947919E-2
3.183599763E1,2.497314742E-2
3.184593263E1,1.333203541E-2
3.185586762E1,-3.055645265E-3
3.186580263E1,-1.071209908E-3
3.187573762E1,8.549086098E-3
3.188567262E1,2.826196868E-3
3.189560763E1,-7.152003553E-3
3.190554163E1,2.103089981E-2
3.191547662E1,-5.335840099E-3
3.192541162E1,-4.157370329E-4
3.193534663E1,1.671280414E-3
3.194528162E1,-2.140044384E-3
3.195521663E1,-2.751918957E-3
3.196515163E1,1.985184532E-3
3.197508662E1,9.802857041E-3
3.198502163E1,-3.391385078E-3
3.199495662E1,1.703747079E-2
3.200489162E1,2.763430662E-3
3.201482562E1,-1.068776004E-2
3.202476063E1,7.520926315E-3
3.203469562E1,1.675508682E-2
3.204463062E1,3.879335225E-3
3.205456563E1,7.011560742E-3
3.206450062E1,1.093239293E-2
3.207443563E1,9.258755352E-3
3.208437063E1,2.033181036E-2
3.209430562E1,5.793987717E-3
3.210424063E1,2.364120651E-3
3.211417562E1,1.642508458E-2
3.212411062E1,1.629562357E-2
3.213404462E1,-2.794749811E-3
3.214397963E1,-2.395019531E-3
3.215391462E1,4.735385869E-3
3.216384962E1,9.924314674E-3
3.217378463E1,-3.792997431E-3
3.218371962E1,6.318355054E-3
3.219365463E1,-5.040647071E-3
3.220358963E1,-1.086266488E-2
3.221352462E1,4.816132262E-3
3.222345963E1,1.771633253E-2
3.223339363E1,-5.884564742E-3
3.224332863E1,1.037571972E-2
3.225326362E1,1.219731012E-2
3.226319863E1,5.740503967E-3
3.227313362E1,-6.413299218E-3
3.228306862E1,8.203917649E-3
3.229300363E1,1.896504197E-2
3.230293862E1,2.652388383E-3
3.231287363E1,6.059396490E-3
3.232280863E1,6.309237052E-3
3.233274362E1,6.402573232E-3
3.234267762E1,-7.010829840E-3
3.235261263E1,4.964139909E-3
3.236254763E1,1.886573067E-2
3.237248262E1,-1.764671411E-3
3.238241763E1,3.103245255E-3
3.239235263E1,8.504957892E-3
3.240228762E1,6.474000625E-3
3.241222263E1,1.636189811E-2
3.242215762E1,1.471393347E-2
3.243209263E1,1.497592527E-2
3.244202763E1,8.286655750E-3
3.245196163E1,3.739367500E-3
3.246189662E1,1.004820256E-2
3.247183163E1,2.241983280E-2
3.248176663E1,7.470822986E-3
3.249170162E1,1.571143191E-2
3.250163663E1,-2.091055680E-3
3.251157163E1,-8.208796419E-3
3.252150662E1,-8.920439109E-3
3.253144163E1,-1.427469794E-3
3.254137662E1,8.419844359E-3
3.255131163E1,-1.009342711E-2
3.256124663E1,6.165450364E-3
3.257118063E1,7.372388765E-3
3.258111562E1,-1.977455243E-3
3.259105063E1,3.569798246E-3
3.260098563E1,1.453846218E-2
3.261092062E1,1.034681255E-2
3.262085563E1,6.952576954E-3
3.263079063E1,2.803210001E-3
3.264072562E1,-6.839817055E-3
3.265066063E1,-2.142785266E-3
3.266059562E1,-2.900365144E-3
3.267052963E1,-4.122743849E-3
3.268046462E1,2.538075317E-3
3.269039963E1,9.588647950E-3
3.270033462E1,9.239404723E-3
3.271026963E1,1.597521443E-2
3.272020463E1,1.924130464E-2
3.273013962E1,-1.862922907E-2
3.274007463E1,-2.192998230E-3
3.275000963E1,5.845717303E-3
3.275994462E1,-2.380438037E-3
3.276987963E1,9.320096299E-3
3.277981363E1,7.830828745E-3
3.278974863E1,8.525240421E-4
3.279968362E1,1.037436755E-2
3.280961863E1,-4.643657673E-3
3.281955362E1,-4.642853681E-3
3.282948863E1,-9.556122813E-3
3.283942363E1,2.182440352E-2
3.284935862E1,5.679893922E-3
3.285929363E1,-4.112931490E-3
3.286922863E1,-2.704392057E-3
3.287916362E1,1.238549910E-3
3.288909762E1,6.200771201E-3
3.289903263E1,5.681063365E-3
3.290896763E1,8.123609796E-3
3.291890262E1,1.918095041E-2
3.292883763E1,6.476211604E-3
3.293877262E1,-6.842101123E-3
3.294870762E1,-7.563501354E-3
3.295864263E1,-1.031832565E-3
3.296857762E1,3.719943780E-3
3.297851263E1,-1.569283046E-3
3.298844763E1,-9.638294466E-3
3.299838163E1,3.904386889E-3
3.300831662E1,-6.264743395E-4
3.301825163E1,-8.208412696E-3
3.302818663E1,1.361122169E-4
3.303812162E1,1.420727223E-3
3.304805663E1,-3.013508767E-4
3.305799162E1,-6.317276973E-3
3.306792662E1,1.045363387E-2
3.307786163E1,1.097624704E-2
3.308779662E1,-2.425278872E-3
3.309773163E1,2.086743359E-3
3.310766562E1,-1.138873156E-3
3.311760063E1,8.015162218E-3
3.312753562E1,2.973345704E-3
3.313747063E1,1.255826605E-2
3.314740563E1,7.921899129E-3
3.315734062E1,-4.143282194E-3
3.316727563E1,1.975936795E-2
3.317721062E1,1.432860196E-3
3.318714562E1,-2.560788095E-3
3.319708063E1,2.361330433E-2
3.320701463E1,4.492963962E-3
3.321694962E1,5.913892183E-3
3.322688462E1,1.548470613E-3
3.323681963E1,1.106338883E-2
3.324675462E1,-7.983459346E-4
3.325668963E1,3.541402705E-3
3.326662463E1,2.316955548E-2
3.327655962E1,8.882304300E-3
3.328649463E1,8.014339954E-5
3.329642962E1,-2.874710485E-3
3.330636462E1,1.817142863E-2
3.331629862E1,7.801610939E-3
3.332623363E1,3.880559485E-3
3.333616862E1,1.191848930E-2
3.334610362E1,1.480045399E-2
3.335603863E1,2.952606361E-3
3.336597362E1,-4.430709388E-3
3.337590863E1,-6.093237251E-3
3.338584363E1,-1.896270309E-3
3.339577862E1,1.673400030E-3
3.340571363E1,8.732396308E-3
3.341564862E1,7.555333525E-3
3.342558263E1,2.024022834E-2
3.343551762E1,1.380841903E-2
3.344545263E1,1.811173221E-2
3.345538762E1,1.633520192E-2
3.346532262E1,-4.101182241E-3
3.347525763E1,3.151320331E-3
3.348519262E1,2.239684593E-3
3.349512763E1,2.481960319E-3
3.350506263E1,1.415395293E-2
3.351499762E1,-4.134730641E-3
3.352493263E1,9.681198411E-3
3.353486663E1,4.011920840E-3
3.354480163E1,-2.848306652E-3
3.355473662E1,3.975083381E-3
3.356467163E1,1.565158932E-2
3.357460662E1,5.290889628E-3
3.358454162E1,-6.194357537E-3
3.359447663E1,1.145462237E-2
3.360441162E1,8.852867223E-4
3.361434663E1,4.669275787E-3
3.362428163E1,-1.338272346E-2
3.363421563E1,1.871236917E-3
3.364415062E1,1.467375213E-2
3.365408563E1,3.336878065E-3
3.366402063E1,1.767045015E-2
3.367395550E1,-8.640722930E-4
3.368389050E1,-1.777924491E-2
3.369382550E1,9.391012061E-3
3.370376050E1,1.422183545E-2
3.371369550E1,1.460049748E-3
3.372363050E1,-8.313534670E-3
3.373356550E1,2.912845295E-3
3.374349950E1,-4.260993954E-3
3.375343450E1,5.890119597E-3
3.376336950E1,4.928745981E-3
3.377330450E1,-3.978116624E-4
3.378323950E1,6.726381071E-3
3.379317450E1,-5.436375663E-3
3.380310950E1,2.158956472E-3
3.381304450E1,1.061837917E-2
3.382297950E1,8.086479977E-3
3.383291450E1,9.049059581E-3
3.384284950E1,1.445241675E-2
3.385278350E1,1.160714334E-2
3.386271850E1,-4.481817707E-3
3.387265350E1,-1.928064544E-3
3.388258850E1,4.660322238E-3
3.389252350E1,2.178952122E-2
3.390245850E1,1.308738425E-2
3.391239350E1,-1.685536657E-2
3.392232850E1,1.557784131E-2
3.393226350E1,2.149745280E-2
3.394219850E1,1.293479020E-2
3.395213250E1,1.010230757E-2
3.396206750E1,6.065444704E-3
3.397200250E1,-6.355247330E-3
3.398193750E1,-9.638860915E-3
3.399187250E1,-1.173581863E-2
3.400180750E1,-3.790037278E-3
3.401174250E1,1.554688761E-2
3.402167750E1,1.130551837E-2
3.403161250E1,-5.626976620E-3
3.404154750E1,-4.538535699E-3
3.405148250E1,-8.987974450E-3
3.406141650E1,1.118455410E-2
3.407135150E1,-8.660311103E-3
3.408128650E1,1.729575327E-2
3.409122150E1,-4.397654347E-4
3.410115650E1,7.335313763E-3
3.411109150E1,1.446972085E-2
3.412102650E1,-1.552362666E-3
3.413096150E1,1.696613476E-2
3.414089650E1,-1.834384840E-2
3.415083150E1,4.053289890E-3
3.416076550E1,3.357599135E-3
3.417070050E1,1.116531311E-2
3.418063550E1,1.425905664E-2
3.419057050E1,8.539730553E-3
3.420050550E1,1.377114303E-2
3.421044050E1,9.381016977E-3
3.422037550E1,1.069309562E-4
3.423031050E1,1.614111090E-2
3.424024550E1,7.264836542E-3
3.425018050E1,1.056443861E-2
3.426011550E1,8.204922639E-3
3.427004950E1,4.963847548E-3
3.427998450E1,1.366238482E-3
3.428991950E1,-1.150991511E-2
3.429985450E1,-5.180633068E-3
3.430978950E1,6.220158376E-3
3.431972450E1,3.698217720E-3
3.432965950E1,2.628012802E-3
3.433959450E1,1.570828903E-2
3.434952950E1,-1.409745421E-3
3.435946450E1,1.232057674E-2
3.436939850E1,1.879238466E-2
3.437933350E1,-2.124421354E-3
3.438926850E1,2.837635484E-3
3.439920350E1,-9.718748499E-3
3.440913850E1,5.897867158E-3
3.441907350E1,1.405190075E-2
3.442900850E1,1.501190392E-2
3.443894350E1,-4.838479590E-3
3.444887850E1,-5.746095367E-3
3.445881350E1,9.798325449E-3
3.446874850E1,1.750596067E-2
3.447868250E1,-1.461913548E-3
3.448861750E1,1.164224491E-2
3.449855250E1,1.217505416E-2
3.450848750E1,-8.668661658E-3
3.451842250E1,-8.315837011E-5
3.452835750E1,-9.296049625E-3
3.453829250E1,-6.898746025E-3
3.454822750E1,6.176541802E-3
3.455816250E1,-6.939329356E-3
3.456809750E1,1.161713842E-3
3.457803250E1,-1.084492223E-2
3.458796650E1,-1.088203378E-3
3.459790150E1,3.609175589E-3
3.460783650E1,-6.533075776E-3
3.461777150E1,2.849658821E-3
3.462770650E1,-5.219882503E-3
3.463764150E1,-1.374205314E-3
3.464757650E1,-5.276052319E-3
3.465751150E1,1.751423813E-4
3.466744650E1,-1.255344210E-2
3.467738125E1,5.965877585E-3
3.468731525E1,1.920006350E-3
3.469725025E1,1.834901953E-2
3.470718525E1,1.506156871E-2
3.471712025E1,1.376673935E-2
3.472705525E1,1.112096563E-2
3.473699025E1,1.170163069E-2
3.474692525E1,1.406447226E-2
3.475686025E1,6.296172179E-3
3.476679525E1,1.885197144E-3
3.477673025E1,1.221753784E-2
3.478666425E1,1.015038265E-2
3.479659925E1,3.448632974E-3
3.480653425E1,4.600205552E-3
3.481646925E1,6.067107506E-3
3.482640425E1,-1.797233094E-3
3.483633925E1,1.140800910E-2
3.484627425E1,1.128719101E-2
3.485620925E1,1.159265321E-3
3.486614425E1,7.412405647E-3
3.487607925E1,-7.293158993E-3
3.488601325E1,-3.595324997E-3
3.489594825E1,1.108858667E-2
3.490588325E1,-4.743444063E-3
3.491581825E1,5.960724726E-3
3.492575325E1,1.315678339E-3
3.493568825E1,5.574041046E-4
3.494562325E1,1.694853829E-2
3.495555825E1,9.112538416E-3
3.496549325E1,1.337139448E-2
3.497542825E1,1.198726717E-2
3.498536325E1,-7.403178010E-3
3.499529725E1,-5.109077767E-3
3.500523225E1,-4.177287407E-4
3.501516725E1,1.489070211E-2
3.502510225E1,5.421337355E-3
3.503503725E1,-2.964446973E-3
3.504497225E1,1.064809034E-2
3.505490725E1,1.578402875E-2
3.506484225E1,4.358258732E-3
3.507477725E1,-6.571539491E-4
3.508471225E1,9.002501126E-3
3.509464625E1,1.091848752E-2
3.510458125E1,4.888637736E-3
3.511451625E1,5.402096361E-3
3.512445125E1,5.269529019E-3
3.513438625E1,1.434663696E-2
3.514432125E1,7.827959955E-3
3.515425625E1,9.411294591E-3
3.516419125E1,-2.474998478E-3
3.517412625E1,8.463113755E-4
3.518406125E1,-2.321710065E-3
3.519399625E1,-1.031631567E-3
3.520393025E1,-6.300320048E-3
3.521386525E1,1.574655175E-3
3.522380025E1,-6.036519259E-3
3.523373525E1,-8.177860994E-3
3.524367025E1,3.629476391E-4
3.525360525E1,8.298898358E-3
3.526354025E1,-1.152553814E-2
3.527347525E1,9.863467086E-3
3.528341025E1,2.043890577E-2
3.529334525E1,-3.850939684E-4
3.530327925E1,8.090061396E-3
3.531321425E1,-2.054510582E-3
3.532314925E1,1.245343644E-2
3.533308425E1,1.270978203E-2
3.534301925E1,2.016923949E-3
3.535295425E1,-2.581399530E-3
3.536288925E1,-2.473335676E-3
3.537282425E1,9.572988376E-4
3.538275925E1,4.162395280E-3
3.539269425E1,1.767889207E-2
3.540262825E1,-6.888330672E-3
3.541256325E1,1.584842121E-2
3.542249825E1,1.858700121E-2
3.543243325E1,-8.135304227E-3
3.544236825E1,-4.160038121E-3
3.545230325E1,-1.988692861E-3
3.546223825E1,-6.386858840E-3
3.547217325E1,8.903500456E-3
3.548210825E1,1.957154442E-3
3.549204325E1,4.352265336E-3
3.550197725E1,-1.925140936E-3
3.551191225E1,1.624438735E-2
3.552184725E1,7.508226894E-3
3.553178225E1,1.190946266E-2
3.554171725E1,-4.425702710E-3
3.555165225E1,-1.267343793E-2
3.556158725E1,3.918858748E-3
3.557152225E1,-3.556751646E-3
3.558145725E1,7.430367563E-3
3.559139225E1,-1.273653304E-2
3.560132625E1,-1.291896617E-2
3.561126125E1,1.674112659E-3
3.562119625E1,5.665915422E-3
3.563113125E1,4.778362904E-3
3.564106625E1,8.344853818E-3
3.565100125E1,2.646376714E-3
3.566093625E1,4.904498309E-3
3.567087125E1,-1.083269790E-3
3.568080687E1,-1.299545506E-2
3.569074188E1,-1.229961812E-3
3.570067687E1,-3.892235644E-3
3.571061088E1,-1.581978813E-2
3.572054587E1,-1.800266337E-3
3.573048088E1,-3.479915578E-3
3.574041587E1,1.330086244E-2
3.575035087E1,1.050698971E-2
3.576028588E1,1.644036043E-3
3.577022087E1,-1.484798089E-2
3.578015588E1,9.464595616E-3
3.579009088E1,2.564168517E-3
3.580002587E1,-5.631398577E-3
3.580995987E1,1.166757066E-2
3.581989488E1,9.738172218E-3
3.582982988E1,-3.159268890E-3
3.583976487E1,-1.255629262E-2
3.584969988E1,2.766865902E-3
3.585963487E1,-4.405950084E-3
3.586956987E1,-9.687867891E-3
3.587950488E1,3.810959347E-3
3.588943987E1,2.299965732E-4
3.589937488E1,1.825190093E-3
3.590930887E1,1.002212763E-3
3.591924388E1,5.008852836E-3
3.592917887E1,8.799949922E-3
3.593911388E1,4.193878882E-3
3.594904888E1,-2.438709196E-3
3.595898387E1,1.367618060E-2
3.596891888E1,3.849770240E-3
3.597885387E1,-1.298673905E-2
3.598878887E1,-7.274301723E-5
3.599872388E1,-3.504546974E-3
3.600865788E1,1.202708306E-2
3.601859287E1,3.065128718E-3
3.602852787E1,-5.895089731E-3
3.603846288E1,5.176814105E-3
3.604839787E1,-5.997123644E-3
3.605833288E1,1.310361028E-3
3.606826788E1,-4.036881141E-3
3.607820287E1,1.484012369E-2
3.608813788E1,2.238518804E-2
3.609807288E1,1.402968133E-2
3.610800688E1,2.364029288E-3
3.611794187E1,-7.990695275E-3
3.612787688E1,6.619340479E-3
3.613781187E1,1.677310355E-2
3.614774687E1,1.062196059E-2
3.615768188E1,-7.651264407E-4
3.616761687E1,1.306094388E-2
3.617755188E1,1.414805090E-2
3.618748688E1,7.269094046E-3
3.619742187E1,1.056792866E-2
3.620735587E1,1.459885295E-3
3.621729088E1,-2.786819525E-3
3.622722588E1,-4.861777090E-3
3.623716087E1,6.464864351E-3
3.624709588E1,-1.195709920E-2
3.625703088E1,-2.114095537E-2
3.626696587E1,-5.529693570E-3
3.627690088E1,8.463607114E-3
3.628683587E1,1.732712723E-3
3.629677088E1,8.711529057E-3
3.630670588E1,2.004516888E-3
3.631663988E1,4.761022255E-3
3.632657487E1,1.541634852E-2
3.633650988E1,-4.923063219E-3
3.634644488E1,6.244607046E-3
3.635637987E1,-1.324025240E-2
3.636631488E1,2.017769968E-2
3.637624988E1,1.945447220E-2
3.638618487E1,1.851568345E-2
3.639611988E1,8.447636906E-3
3.640605487E1,9.195605423E-3
3.641598888E1,-2.016028594E-3
3.642592387E1,-2.323555592E-3
3.643585888E1,9.989054315E-4
3.644579387E1,4.693285916E-3
3.645572888E1,8.104642890E-3
3.646566388E1,-3.316029087E-3
3.647559887E1,-4.845879972E-3
3.648553388E1,1.324376073E-3
3.649546888E1,2.787842788E-3
3.650540288E1,6.926575117E-3
3.651533787E1,-3.316942714E-3
3.652527288E1,1.120034158E-2
3.653520788E1,6.454741359E-3
3.654514287E1,1.492545649E-2
3.655507788E1,-2.587959375E-3
3.656501287E1,9.854732808E-3
3.657494788E1,1.735252608E-2
3.658488288E1,-3.889951576E-3
3.659481787E1,6.353255622E-3
3.660475187E1,5.277459305E-3
3.661468688E1,5.289427824E-3
3.662462188E1,1.586782666E-2
3.663455687E1,9.142742939E-3
3.664449188E1,1.092857396E-2
3.665442688E1,3.647858575E-3
3.666436187E1,1.697812155E-3
3.667429688E1,1.624557506E-3
3.668423162E1,1.011391064E-2
3.669416663E1,2.317799740E-2
3.670410163E1,-2.713290788E-3
3.671403563E1,-1.526671462E-4
3.672397062E1,1.160935432E-2
3.673390563E1,7.752384692E-3
3.674384063E1,-1.566982532E-2
3.675377562E1,-1.087231278E-2
3.676371063E1,2.167124301E-3
3.677364562E1,-4.004429094E-4
3.678358063E1,1.023814570E-2
3.679351563E1,9.468268398E-3
3.680345062E1,-2.198827174E-3
3.681338462E1,-1.282276120E-3
3.682331963E1,-1.149434689E-3
3.683325463E1,-2.523055281E-3
3.684318962E1,6.179903951E-3
3.685312463E1,1.933465909E-2
3.686305963E1,1.204369280E-2
3.687299462E1,4.523753207E-3
3.688292963E1,8.079572953E-4
3.689286462E1,2.886240464E-3
3.690279863E1,-5.066996086E-3
3.691273362E1,4.728259575E-3
3.692266863E1,2.932890281E-3
3.693260362E1,-7.867867202E-3
3.694253863E1,2.578855991E-2
3.695247363E1,2.681348545E-2
3.696240862E1,7.727552298E-3
3.697234363E1,-5.231777932E-3
3.698227863E1,4.918495081E-3
3.699221362E1,-5.019414369E-3
3.700214762E1,-1.679080965E-2
3.701208263E1,-1.133733088E-2
3.702201763E1,-3.683142867E-3
3.703195262E1,-8.848317359E-3
3.704188763E1,8.355104718E-3
3.705182262E1,1.419647316E-2
3.706175762E1,5.222440660E-3
3.707169263E1,-2.560477462E-3
3.708162762E1,3.761166651E-3
3.709156263E1,-2.354381382E-3
3.710149663E1,6.555605829E-3
3.711143163E1,-1.545565277E-3
3.712136662E1,-9.695469271E-3
3.713130163E1,7.760917973E-3
3.714123663E1,5.108785406E-3
3.715117162E1,1.924099401E-3
3.716110663E1,8.576494921E-3
3.717104162E1,4.564848170E-3
3.718097662E1,9.032504652E-3
3.719091163E1,7.900501974E-4
3.720084563E1,2.188784581E-2
3.721078062E1,-4.546758346E-3
3.722071562E1,5.459216349E-3
3.723065063E1,-1.026970239E-2
3.724058562E1,1.626487087E-2
3.725052063E1,1.579924978E-2
3.726045563E1,-1.485384637E-2
3.727039062E1,2.052988479E-2
3.728032563E1,5.055612288E-3
3.729026062E1,-1.636778187E-2
3.730019463E1,9.145045280E-3
3.731012962E1,9.863686357E-3
3.732006463E1,-1.064971659E-2
3.732999962E1,-6.721155122E-3
3.733993462E1,6.337468140E-4
3.734986963E1,8.469490875E-3
3.735980462E1,7.162345815E-3
3.736973963E1,1.138973655E-2
3.737967463E1,7.137257606E-5
3.738960863E1,1.345270732E-2
3.739954362E1,5.331747048E-3
3.740947863E1,1.193539141E-2
3.741941363E1,1.700171141E-2
3.742934862E1,1.456647400E-2
3.743928363E1,1.231240891E-3
3.744921862E1,-3.889714032E-3
3.745915362E1,5.112750549E-3
3.746908863E1,7.591293901E-3
3.747902362E1,2.032296645E-2
3.748895762E1,1.277172597E-2
3.749889262E1,2.291852720E-3
3.750882763E1,5.937226228E-3
3.751876262E1,1.390926523E-2
3.752869763E1,1.388763053E-2
3.753863263E1,1.933908105E-2
3.754856762E1,1.818708820E-2
3.755850263E1,-2.221887130E-3
3.756843762E1,2.568681836E-3
3.757837262E1,-6.973919291E-3
3.758830662E1,-4.752945788E-3
3.759824163E1,-3.563128766E-3
3.760817662E1,-1.376178749E-3
3.761811162E1,2.442942945E-2
3.762804663E1,2.228593156E-3
3.763798162E1,-1.108703351E-2
3.764791663E1,-2.060193345E-3
3.765785163E1,9.852704555E-3
3.766778662E1,1.734099610E-2
3.767772125E1,2.219179139E-2
3.768765525E1,2.465206219E-2
3.769759025E1,6.630431917E-3
3.770752525E1,-9.626161493E-4
3.771746025E1,1.734563733E-2
3.772739525E1,6.207056958E-3
3.773733025E1,7.259007599E-3
3.774726525E1,1.999932306E-2
3.775720025E1,-9.659234807E-4
3.776713525E1,5.103340186E-3
3.777707025E1,2.512316504E-2
3.778700425E1,1.268283002E-2
3.779693925E1,6.425614916E-3
3.780687425E1,1.453928445E-3
3.781680925E1,3.177906889E-3
3.782674425E1,-3.002874143E-3
3.783667925E1,8.318705801E-3
3.784661425E1,1.233590741E-2
3.785654925E1,-9.775046222E-3
3.786648425E1,7.934086919E-3
3.787641825E1,7.634636387E-3
3.788635325E1,1.263674665E-2
3.789628825E1,2.724126410E-3
3.790622325E1,-4.076971114E-4
3.791615825E1,8.528310210E-3
3.792609325E1,-1.422298662E-3
3.793602825E1,-5.877109542E-3
3.794596325E1,-1.368016401E-2
3.795589825E1,2.376958944E-2
3.796583325E1,2.319937628E-3
3.797576725E1,7.437037043E-3
3.798570225E1,6.914935503E-3
3.799563725E1,8.265404776E-3
3.800557225E1,-1.011239402E-3
3.801550725E1,-1.878262712E-2
3.802544225E1,4.909102991E-3
3.803537725E1,-3.154426664E-3
3.804531225E1,4.573783446E-3
3.805524725E1,1.136866830E-2
3.806518125E1,2.496234834E-2
3.807511625E1,2.593294960E-3
3.808505125E1,4.599584285E-3
3.809498625E1,1.270084675E-2
3.810492125E1,9.798471630E-3
3.811485625E1,1.305224614E-2
3.812479125E1,1.172112750E-2
3.813472625E1,9.573061466E-3
3.814466125E1,-1.424436551E-3
3.815459625E1,-5.244057085E-3
3.816453025E1,-4.986395873E-4
3.817446525E1,-8.118365575E-3
3.818440025E1,6.767969392E-3
3.819433525E1,8.453977481E-3
3.820427025E1,2.317573160E-2
3.821420525E1,2.823328078E-3
3.822414025E1,9.096842296E-3
3.823407525E1,2.217112513E-2
3.824401025E1,-9.465911239E-4
3.825394425E1,-4.262181669E-3
3.826387925E1,3.476060070E-3
3.827381425E1,4.284090456E-3
3.828374925E1,-3.020635061E-3
3.829368425E1,1.672999861E-2
3.830361925E1,1.465843974E-2
3.831355425E1,3.094730247E-3
3.832348925E1,-2.827494219E-4
3.833342425E1,-8.510859925E-3
3.834335825E1,1.172275376E-3
3.835329325E1,1.543553470E-2
3.836322825E1,6.343790442E-3
3.837316325E1,2.282643355E-3
3.838309825E1,-2.437302209E-3
3.839303325E1,1.290701592E-2
3.840296825E1,7.288609128E-3
3.841290325E1,2.299600281E-3
3.842283825E1,-6.200880837E-3
3.843277325E1,-4.083092418E-3
3.844270725E1,1.630757382E-2
3.845264225E1,7.427425683E-4
3.846257725E1,1.397526568E-2
3.847251225E1,4.160111211E-4
3.848244725E1,1.694669276E-3
3.849238225E1,-6.018264983E-3
3.850231725E1,-7.211188339E-3
3.851225225E1,1.113602221E-3
3.852218725E1,-2.076090463E-3
3.853212225E1,8.818332106E-3
3.854205625E1,-4.817904700E-3
3.855199125E1,3.347841594E-3
3.856192625E1,5.603149217E-3
3.857186125E1,1.384849073E-2
3.858179625E1,2.186310478E-3
3.859173125E1,-6.604283899E-3
3.860166625E1,1.071361570E-2
3.861160125E1,-7.817343604E-3
3.862153625E1,-4.259166699E-3
3.863147025E1,-3.432333861E-3
3.864140525E1,1.064644581E-2
3.865134025E1,1.471561454E-2
3.866127525E1,-6.915593315E-3
3.867121025E1,8.613003474E-3
3.868114592E1,-3.213118091E-3
3.869108092E1,8.626634795E-3
3.870101592E1,1.731082812E-2
3.871095092E1,1.172916742E-2
3.872088592E1,-2.276211418E-4
3.873081992E1,-6.701000500E-3
3.874075492E1,-4.814451188E-4
3.875068992E1,-8.592666127E-3
3.876062492E1,1.410984300E-2
3.877055992E1,2.301321555E-2
3.878049492E1,1.316381833E-2
3.879042992E1,-3.528703284E-3
3.880036492E1,-9.873096719E-3
3.881029992E1,8.618960325E-3
3.882023392E1,1.193851601E-2
3.883016892E1,-7.584167607E-3
3.884010392E1,5.311665516E-3
3.885003892E1,-5.033630412E-3
3.885997392E1,1.627563341E-2
3.886990892E1,1.848365167E-2
3.887984392E1,7.089109439E-3
3.888977892E1,-5.741910953E-3
3.889971392E1,-3.217521776E-3
3.890964792E1,2.096080631E-3
3.891958292E1,3.877526242E-3
3.892951792E1,5.437654741E-3
3.893945292E1,8.320642691E-3
3.894938792E1,-3.249041922E-4
3.895932292E1,7.955593709E-3
3.896925792E1,-1.123761758E-4
3.897919292E1,-7.949819583E-3
3.898912792E1,6.011997499E-3
3.899906292E1,1.217512725E-2
3.900899692E1,-5.975525491E-3
3.901893192E1,2.724912129E-3
3.902886692E1,1.164462034E-2
3.903880192E1,1.686764572E-2
3.904873692E1,1.680458715E-2
3.905867192E1,3.094839882E-3
3.906860692E1,-2.448612917E-3
3.907854192E1,-6.227394305E-3
3.908847692E1,-3.661727440E-3
3.909841092E1,-7.679038681E-4
3.910834592E1,2.458567802E-2
3.911828092E1,6.609107852E-3
3.912821592E1,-1.032515958E-2
3.913815092E1,3.953466956E-3
3.914808592E1,4.444779251E-3
3.915802092E1,6.059707124E-3
3.916795592E1,3.730834220E-3
3.917789092E1,1.054976575E-2
3.918782492E1,1.162481289E-3
3.919775992E1,8.887822609E-3
3.920769492E1,1.134929940E-2
3.921762992E1,-7.232274860E-5
3.922756492E1,-1.176684542E-2
3.923749992E1,-8.488055784E-3
3.924743492E1,1.143861562E-3
3.925736992E1,7.269623950E-3
3.926730492E1,6.328880042E-3
3.927723892E1,3.285952471E-4
3.928717392E1,3.257027026E-3
3.929710892E1,1.090158541E-3
3.930704392E1,-7.334966585E-4
3.931697892E1,5.726287924E-3
3.932691392E1,1.687217731E-2
3.933684892E1,1.712150624E-2
3.934678392E1,2.300550453E-3
3.935671892E1,1.227745352E-2
3.936665392E1,6.140617970E-3
3.937658792E1,8.016697112E-3
3.938652292E1,6.371820532E-3
3.939645792E1,-3.877416607E-3
3.940639292E1,2.861060891E-3
3.941632792E1,1.065930968E-2
3.942626292E1,1.071659412E-2
3.943619792E1,6.386566479E-3
3.944613292E1,-6.217563674E-3
3.945606692E1,-1.072912909E-2
3.946600192E1,-2.924009822E-3
3.947593692E1,1.534501249E-2
3.948587192E1,2.034341343E-2
3.949580692E1,1.075783527E-2
3.950574192E1,3.480938841E-3
3.951567692E1,7.170605008E-3
3.952561192E1,-9.714015909E-3
3.953554692E1,-5.625277273E-3
3.954548192E1,5.382800549E-3
3.955541592E1,5.400141198E-3
3.956535092E1,-3.575608917E-3
3.957528592E1,-5.592423230E-3
3.958522092E1,1.321927551E-3
3.959515592E1,3.781630078E-2
3.960509092E1,-1.263254397E-2
3.961502592E1,-7.142392192E-3
3.962496092E1,1.796052687E-2
3.963489592E1,1.992544714E-2
3.964482992E1,8.028482907E-3
3.965476492E1,7.289065942E-3
3.966469992E1,1.001553124E-2
3.967463492E1,-6.116680931E-3
3.968456892E1,2.829761842E-2
3.969450392E1,1.410489114E-2
3.970443892E1,-7.528308425E-3
3.971437392E1,-6.834298745E-4
3.972430892E1,2.685041428E-3
3.973424292E1,1.954559740E-3
3.974417792E1,1.125309443E-2
3.975411292E1,2.064801682E-2
3.976404792E1,1.156166296E-2
3.977398292E1,-4.290759936E-4
3.978391792E1,-2.112233564E-3
3.979385292E1,1.502045548E-2
3.980378792E1,-1.221885346E-3
3.981372292E1,3.600349948E-3
3.982365692E1,2.215316322E-2
3.983359192E1,-1.090807216E-2
3.984352692E1,-2.903526295E-3
3.985346192E1,1.104999505E-2
3.986339692E1,7.066506296E-3
3.987333192E1,-6.325554438E-3
3.988326692E1,5.786386337E-3
3.989320192E1,-4.898797274E-3
3.990313692E1,-3.989701420E-3
3.991307192E1,1.411201743E-2
3.992300592E1,-3.157679178E-4
3.993294092E1,-6.802961323E-3
3.994287592E1,4.888016470E-3
3.995281092E1,8.182465676E-3
3.996274592E1,1.136289418E-2
3.997268092E1,-1.034783581E-2
3.998261592E1,8.426513840E-3
3.999255092E1,5.453058500E-3
4.000248592E1,1.372452976E-2
4.001241992E1,1.170607092E-2
4.002235492E1,1.595860468E-2
4.003228992E1,1.021702264E-2
4.004222492E1,8.808647655E-3
4.005215992E1,-9.636211395E-4
4.006209492E1,2.964337338E-3
4.007202992E1,1.673484083E-2
4.008196492E1,5.449422263E-4
4.009189892E1,-1.273172736E-2
4.010183392E1,7.267449517E-3
4.011176892E1,1.134518808E-2
4.012170392E1,9.964020923E-3
4.013163892E1,-8.208851237E-3
4.014157392E1,9.239697084E-3
4.015150892E1,6.383953504E-3
4.016144392E1,-1.042547587E-2
4.017137892E1,9.201269913E-3
4.018131392E1,7.216341197E-3
4.019124792E1,1.079927741E-2
4.020118292E1,2.846150491E-3
4.021111792E1,-4.649943430E-3
4.022105292E1,-9.524639212E-3
4.023098792E1,4.006731436E-3
4.024092292E1,1.074049462E-2
4.025085792E1,-1.032452004E-2
4.026079292E1,-8.770001214E-3
4.027072792E1,1.780566702E-2
4.028066192E1,-3.670151085E-3
4.029059692E1,6.520668715E-3
4.030053192E1,1.399783228E-2
4.031046692E1,1.853713542E-3
4.032040192E1,8.410671540E-4
4.033033692E1,1.003298152E-2
4.034027192E1,1.071962737E-2
4.035020692E1,6.404108126E-3
4.036014092E1,9.862918910E-3
4.037007592E1,2.306686375E-2
4.038001092E1,-5.488287974E-3
4.038994592E1,-1.424180735E-3
4.039988092E1,6.902601533E-3
4.040981592E1,-1.625127610E-2
4.041975092E1,-9.588593133E-3
4.042968592E1,1.294537000E-2
4.043962092E1,8.899151590E-3
4.044955492E1,7.228949256E-3
4.045948992E1,7.390167955E-3
4.046942492E1,1.260385606E-3
4.047935992E1,1.109103519E-2
4.048929492E1,9.991977923E-3
4.049922992E1,7.057114206E-3
4.050916492E1,3.440191057E-3
4.051909992E1,-3.298999071E-3
4.052903492E1,1.194443632E-2
4.053896992E1,5.765117090E-3
